date	time	group	subject	build	blocknum	trialnum	blockcode	trialcode	pretrialpause	posttrialpause	windowcenter	trialduration	trialtimeout	blocktimeout	response	correct	latency	inwindow	stimulusnumber1	stimulusitem1	stimulusvpos1	stimulushpos1	stimulusonset1	stimulusnumber2	stimulusitem2	stimulusvpos2	stimulushpos2	stimulusonset2
081216	13:31:56	1	1	4.0.7.0	2	1	AA_1	up_avoid_E	100	0	0	0	0	0	200	1	1661	0	1	up.bmp	33pct	50pct	0	1	ENANWAL	50pct	50pct	491
081216	13:31:56	1	1	4.0.7.0	2	3	AA_1	up_approach_B	100	0	0	0	0	0	200	1	662	0	1	up.bmp	67pct	50pct	0	1	BAYRAM	50pct	50pct	491
081216	13:31:56	1	1	4.0.7.0	2	5	AA_1	down_avoid_L	100	0	0	0	0	0	208	0	4219	0	1	up.bmp	67pct	50pct	0	1	LOKANTA	50pct	50pct	491
081216	13:31:56	1	1	4.0.7.0	2	7	AA_1	down	100	100	0	0	0	0	208	1	1677	0	1	DOWN	50pct	50pct	491	0	0	0	0	0
081216	13:31:56	1	1	4.0.7.0	2	8	AA_1	up_approach_B	100	0	0	0	0	0	200	0	4690	0	1	up.bmp	67pct	50pct	0	1	BAYRAM	50pct	50pct	491
081216	13:31:56	1	1	4.0.7.0	2	10	AA_1	up_approach_B	100	0	0	0	0	0	200	0	2017	0	1	up.bmp	67pct	50pct	0	1	BAYRAM	50pct	50pct	491
081216	13:31:56	1	1	4.0.7.0	2	12	AA_1	down_avoid_L	100	0	0	0	0	0	208	0	1574	0	1	up.bmp	67pct	50pct	0	1	LOKANTA	50pct	50pct	491
081216	13:31:56	1	1	4.0.7.0	2	14	AA_1	up_approach_B	100	0	0	0	0	0	200	1	509	0	1	up.bmp	67pct	50pct	0	1	BAYRAM	50pct	50pct	491
081216	13:31:56	1	1	4.0.7.0	2	16	AA_1	down_avoid_L	100	0	0	0	0	0	208	1	336	0	1	up.bmp	67pct	50pct	0	1	LOKANTA	50pct	50pct	491
081216	13:31:56	1	1	4.0.7.0	2	18	AA_1	down_avoid_L	100	0	0	0	0	0	208	1	658	0	1	up.bmp	67pct	50pct	0	1	LOKANTA	50pct	50pct	491
081216	13:31:56	1	1	4.0.7.0	2	20	AA_1	down_approach_U	100	0	0	0	0	0	208	1	1950	0	1	up.bmp	33pct	50pct	0	1	UDIBNON	50pct	50pct	491
081216	13:31:56	1	1	4.0.7.0	2	22	AA_1	up_avoid_E	100	0	0	0	0	0	200	0	1430	0	1	up.bmp	33pct	50pct	0	1	ENANWAL	50pct	50pct	491
081216	13:31:56	1	1	4.0.7.0	2	24	AA_1	up	100	100	0	0	0	0	200	1	2682	0	1	UP	50pct	50pct	491	0	0	0	0	0
081216	13:31:56	1	1	4.0.7.0	2	25	AA_1	up_avoid_E	100	0	0	0	0	0	200	0	21662	0	1	up.bmp	33pct	50pct	0	1	ENANWAL	50pct	50pct	491
081216	13:31:56	1	1	4.0.7.0	2	27	AA_1	up_avoid_E	100	0	0	0	0	0	200	1	708	0	1	up.bmp	33pct	50pct	0	1	ENANWAL	50pct	50pct	491
081216	13:31:56	1	1	4.0.7.0	2	29	AA_1	up_approach_B	100	0	0	0	0	0	200	1	1670	0	1	up.bmp	67pct	50pct	0	1	BAYRAM	50pct	50pct	491
081216	13:31:56	1	1	4.0.7.0	2	31	AA_1	down_avoid_L	100	0	0	0	0	0	208	1	857	0	1	up.bmp	67pct	50pct	0	1	LOKANTA	50pct	50pct	491
081216	13:31:56	1	1	4.0.7.0	2	33	AA_1	down_approach_U	100	0	0	0	0	0	208	1	2326	0	1	up.bmp	33pct	50pct	0	1	UDIBNON	50pct	50pct	491
081216	13:31:56	1	1	4.0.7.0	2	35	AA_1	up_approach_B	100	0	0	0	0	0	200	1	686	0	1	up.bmp	67pct	50pct	0	1	BAYRAM	50pct	50pct	491
081216	13:31:56	1	1	4.0.7.0	2	37	AA_1	down_avoid_L	100	0	0	0	0	0	208	1	473	0	1	up.bmp	67pct	50pct	0	1	LOKANTA	50pct	50pct	491
081216	13:31:56	1	1	4.0.7.0	2	39	AA_1	up_avoid_E	100	0	0	0	0	0	200	1	670	0	1	up.bmp	33pct	50pct	0	1	ENANWAL	50pct	50pct	491
081216	13:31:56	1	1	4.0.7.0	2	41	AA_1	down	100	100	0	0	0	0	208	1	626	0	1	DOWN	50pct	50pct	491	0	0	0	0	0
081216	13:31:56	1	1	4.0.7.0	2	42	AA_1	down	100	100	0	0	0	0	208	1	467	0	1	DOWN	50pct	50pct	491	0	0	0	0	0
081216	13:31:56	1	1	4.0.7.0	2	43	AA_1	down_approach_U	100	0	0	0	0	0	208	0	19146	0	1	up.bmp	33pct	50pct	0	1	UDIBNON	50pct	50pct	491
081216	13:31:56	1	1	4.0.7.0	2	45	AA_1	up	100	100	0	0	0	0	200	1	791	0	1	UP	50pct	50pct	491	0	0	0	0	0
081216	13:31:56	1	1	4.0.7.0	2	46	AA_1	down_approach_U	100	0	0	0	0	0	208	1	569	0	1	up.bmp	33pct	50pct	0	1	UDIBNON	50pct	50pct	491
081216	13:31:56	1	1	4.0.7.0	2	48	AA_1	up_approach_B	100	0	0	0	0	0	200	1	642	0	1	up.bmp	67pct	50pct	0	1	BAYRAM	50pct	50pct	491
081216	13:31:56	1	1	4.0.7.0	2	50	AA_1	up	100	100	0	0	0	0	200	1	583	0	1	UP	50pct	50pct	491	0	0	0	0	0
081216	13:31:56	1	1	4.0.7.0	2	51	AA_1	up_avoid_E	100	0	0	0	0	0	200	0	3634	0	1	up.bmp	33pct	50pct	0	1	ENANWAL	50pct	50pct	491
081216	13:31:56	1	1	4.0.7.0	2	53	AA_1	down	100	100	0	0	0	0	208	1	16659	0	1	DOWN	50pct	50pct	491	0	0	0	0	0
081216	13:31:56	1	1	4.0.7.0	2	54	AA_1	up_approach_B	100	0	0	0	0	0	200	1	842	0	1	up.bmp	67pct	50pct	0	1	BAYRAM	50pct	50pct	491
081216	13:31:56	1	1	4.0.7.0	2	56	AA_1	down	100	100	0	0	0	0	208	1	694	0	1	DOWN	50pct	50pct	491	0	0	0	0	0
081216	13:31:56	1	1	4.0.7.0	2	57	AA_1	down_avoid_L	100	0	0	0	0	0	208	1	821	0	1	up.bmp	67pct	50pct	0	1	LOKANTA	50pct	50pct	491
081216	13:31:56	1	1	4.0.7.0	2	59	AA_1	down_approach_U	100	0	0	0	0	0	208	1	2539	0	1	up.bmp	33pct	50pct	0	1	UDIBNON	50pct	50pct	491
081216	13:31:56	1	1	4.0.7.0	2	61	AA_1	down_avoid_L	100	0	0	0	0	0	208	0	906	0	1	up.bmp	67pct	50pct	0	1	LOKANTA	50pct	50pct	491
081216	13:31:56	1	1	4.0.7.0	2	63	AA_1	up	100	100	0	0	0	0	200	1	1397	0	1	UP	50pct	50pct	491	0	0	0	0	0
081216	13:31:56	1	1	4.0.7.0	2	64	AA_1	down_avoid_L	100	0	0	0	0	0	208	1	1542	0	1	up.bmp	67pct	50pct	0	1	LOKANTA	50pct	50pct	491
081216	13:31:56	1	1	4.0.7.0	2	66	AA_1	down_avoid_L	100	0	0	0	0	0	208	1	486	0	1	up.bmp	67pct	50pct	0	1	LOKANTA	50pct	50pct	491
081216	13:31:56	1	1	4.0.7.0	2	68	AA_1	down_approach_U	100	0	0	0	0	0	208	1	1122	0	1	up.bmp	33pct	50pct	0	1	UDIBNON	50pct	50pct	491
081216	13:31:56	1	1	4.0.7.0	2	70	AA_1	down	100	100	0	0	0	0	208	1	532	0	1	DOWN	50pct	50pct	491	0	0	0	0	0
081216	13:31:56	1	1	4.0.7.0	2	71	AA_1	down_approach_U	100	0	0	0	0	0	208	1	449	0	1	up.bmp	33pct	50pct	0	1	UDIBNON	50pct	50pct	491
081216	13:31:56	1	1	4.0.7.0	2	73	AA_1	up_approach_B	100	0	0	0	0	0	200	1	726	0	1	up.bmp	67pct	50pct	0	1	BAYRAM	50pct	50pct	491
081216	13:31:56	1	1	4.0.7.0	2	75	AA_1	down_approach_U	100	0	0	0	0	0	208	1	504	0	1	up.bmp	33pct	50pct	0	1	UDIBNON	50pct	50pct	491
081216	13:31:56	1	1	4.0.7.0	2	77	AA_1	down	100	100	0	0	0	0	208	1	507	0	1	DOWN	50pct	50pct	491	0	0	0	0	0
081216	13:31:56	1	1	4.0.7.0	2	78	AA_1	up_approach_B	100	0	0	0	0	0	200	1	634	0	1	up.bmp	67pct	50pct	0	1	BAYRAM	50pct	50pct	491
081216	13:31:56	1	1	4.0.7.0	2	80	AA_1	down_avoid_L	100	0	0	0	0	0	208	1	599	0	1	up.bmp	67pct	50pct	0	1	LOKANTA	50pct	50pct	491
081216	13:31:56	1	1	4.0.7.0	2	82	AA_1	up_avoid_E	100	0	0	0	0	0	200	1	974	0	1	up.bmp	33pct	50pct	0	1	ENANWAL	50pct	50pct	491
081216	13:31:56	1	1	4.0.7.0	2	84	AA_1	up_approach_B	100	0	0	0	0	0	200	1	670	0	1	up.bmp	67pct	50pct	0	1	BAYRAM	50pct	50pct	491
081216	13:31:56	1	1	4.0.7.0	2	86	AA_1	down_avoid_L	100	0	0	0	0	0	208	1	770	0	1	up.bmp	67pct	50pct	0	1	LOKANTA	50pct	50pct	491
081216	13:31:56	1	1	4.0.7.0	2	88	AA_1	down_approach_U	100	0	0	0	0	0	208	1	1314	0	1	up.bmp	33pct	50pct	0	1	UDIBNON	50pct	50pct	491
081216	13:31:56	1	1	4.0.7.0	2	90	AA_1	down_avoid_L	100	0	0	0	0	0	208	0	940	0	1	up.bmp	67pct	50pct	0	1	LOKANTA	50pct	50pct	491
081216	13:31:56	1	1	4.0.7.0	2	92	AA_1	up_avoid_E	100	0	0	0	0	0	200	0	1613	0	1	up.bmp	33pct	50pct	0	1	ENANWAL	50pct	50pct	491
081216	13:31:56	1	1	4.0.7.0	2	94	AA_1	up_avoid_E	100	0	0	0	0	0	200	1	530	0	1	up.bmp	33pct	50pct	0	1	ENANWAL	50pct	50pct	491
081216	13:31:56	1	1	4.0.7.0	2	96	AA_1	up_avoid_E	100	0	0	0	0	0	200	1	380	0	1	up.bmp	33pct	50pct	0	1	ENANWAL	50pct	50pct	491
081216	13:31:56	1	1	4.0.7.0	2	98	AA_1	down_avoid_L	100	0	0	0	0	0	208	1	812	0	1	up.bmp	67pct	50pct	0	1	LOKANTA	50pct	50pct	491
081216	13:31:56	1	1	4.0.7.0	2	100	AA_1	down_approach_U	100	0	0	0	0	0	208	0	3522	0	1	up.bmp	33pct	50pct	0	1	UDIBNON	50pct	50pct	491
081216	13:31:56	1	1	4.0.7.0	2	102	AA_1	up	100	100	0	0	0	0	200	1	553	0	1	UP	50pct	50pct	491	0	0	0	0	0
081216	13:31:56	1	1	4.0.7.0	2	103	AA_1	up_approach_B	100	0	0	0	0	0	200	1	814	0	1	up.bmp	67pct	50pct	0	1	BAYRAM	50pct	50pct	491
081216	13:31:56	1	1	4.0.7.0	2	105	AA_1	down_approach_U	100	0	0	0	0	0	208	1	10611	0	1	up.bmp	33pct	50pct	0	1	UDIBNON	50pct	50pct	491
081216	13:31:56	1	1	4.0.7.0	2	107	AA_1	up_approach_B	100	0	0	0	0	0	200	1	2799	0	1	up.bmp	67pct	50pct	0	1	BAYRAM	50pct	50pct	491
081216	13:31:56	1	1	4.0.7.0	2	109	AA_1	up_avoid_E	100	0	0	0	0	0	200	0	1043	0	1	up.bmp	33pct	50pct	0	1	ENANWAL	50pct	50pct	491
081216	13:31:56	1	1	4.0.7.0	2	111	AA_1	up_approach_B	100	0	0	0	0	0	200	1	1032	0	1	up.bmp	67pct	50pct	0	1	BAYRAM	50pct	50pct	491
081216	13:31:56	1	1	4.0.7.0	2	113	AA_1	down_avoid_L	100	0	0	0	0	0	208	1	1045	0	1	up.bmp	67pct	50pct	0	1	LOKANTA	50pct	50pct	491
081216	13:31:56	1	1	4.0.7.0	2	115	AA_1	up_avoid_E	100	0	0	0	0	0	200	1	730	0	1	up.bmp	33pct	50pct	0	1	ENANWAL	50pct	50pct	491
081216	13:31:56	1	1	4.0.7.0	2	117	AA_1	down	100	100	0	0	0	0	208	1	515	0	1	DOWN	50pct	50pct	491	0	0	0	0	0
081216	13:31:56	1	1	4.0.7.0	2	118	AA_1	up_approach_B	100	0	0	0	0	0	200	1	625	0	1	up.bmp	67pct	50pct	0	1	BAYRAM	50pct	50pct	491
081216	13:31:56	1	1	4.0.7.0	2	120	AA_1	up_avoid_E	100	0	0	0	0	0	200	1	791	0	1	up.bmp	33pct	50pct	0	1	ENANWAL	50pct	50pct	491
081216	13:31:56	1	1	4.0.7.0	2	122	AA_1	up_approach_B	100	0	0	0	0	0	200	1	677	0	1	up.bmp	67pct	50pct	0	1	BAYRAM	50pct	50pct	491
081216	13:31:56	1	1	4.0.7.0	2	124	AA_1	down_avoid_L	100	0	0	0	0	0	208	1	1105	0	1	up.bmp	67pct	50pct	0	1	LOKANTA	50pct	50pct	491
081216	13:31:56	1	1	4.0.7.0	2	126	AA_1	up_avoid_E	100	0	0	0	0	0	200	0	1347	0	1	up.bmp	33pct	50pct	0	1	ENANWAL	50pct	50pct	491
081216	13:31:56	1	1	4.0.7.0	2	128	AA_1	up_approach_B	100	0	0	0	0	0	200	1	620	0	1	up.bmp	67pct	50pct	0	1	BAYRAM	50pct	50pct	491
081216	13:31:56	1	1	4.0.7.0	2	130	AA_1	up	100	100	0	0	0	0	200	1	738	0	1	UP	50pct	50pct	491	0	0	0	0	0
081216	13:31:56	1	1	4.0.7.0	2	131	AA_1	down_approach_U	100	0	0	0	0	0	208	1	2095	0	1	up.bmp	33pct	50pct	0	1	UDIBNON	50pct	50pct	491
081216	13:31:56	1	1	4.0.7.0	2	133	AA_1	up_avoid_E	100	0	0	0	0	0	200	1	23879	0	1	up.bmp	33pct	50pct	0	1	ENANWAL	50pct	50pct	491
081216	13:31:56	1	1	4.0.7.0	2	135	AA_1	down_approach_U	100	0	0	0	0	0	208	1	19761	0	1	up.bmp	33pct	50pct	0	1	UDIBNON	50pct	50pct	491
081216	13:31:56	1	1	4.0.7.0	2	137	AA_1	down_approach_U	100	0	0	0	0	0	208	1	549	0	1	up.bmp	33pct	50pct	0	1	UDIBNON	50pct	50pct	491
081216	13:31:56	1	1	4.0.7.0	2	139	AA_1	up_avoid_E	100	0	0	0	0	0	200	1	12558	0	1	up.bmp	33pct	50pct	0	1	ENANWAL	50pct	50pct	491
081216	13:31:56	1	1	4.0.7.0	2	141	AA_1	up_approach_B	100	0	0	0	0	0	200	1	577	0	1	up.bmp	67pct	50pct	0	1	BAYRAM	50pct	50pct	491
081216	13:31:56	1	1	4.0.7.0	2	143	AA_1	down_approach_U	100	0	0	0	0	0	208	1	881	0	1	up.bmp	33pct	50pct	0	1	UDIBNON	50pct	50pct	491
081216	13:31:56	1	1	4.0.7.0	2	145	AA_1	up_approach_B	100	0	0	0	0	0	200	1	372	0	1	up.bmp	67pct	50pct	0	1	BAYRAM	50pct	50pct	491
081216	13:31:56	1	1	4.0.7.0	2	147	AA_1	down_approach_U	100	0	0	0	0	0	208	1	7805	0	1	up.bmp	33pct	50pct	0	1	UDIBNON	50pct	50pct	491
081216	13:31:56	1	1	4.0.7.0	2	149	AA_1	up	100	100	0	0	0	0	200	1	587	0	1	UP	50pct	50pct	491	0	0	0	0	0
081216	13:31:56	1	1	4.0.7.0	2	150	AA_1	up	100	100	0	0	0	0	200	1	423	0	1	UP	50pct	50pct	491	0	0	0	0	0
081216	13:31:56	1	1	4.0.7.0	2	151	AA_1	up_avoid_E	100	0	0	0	0	0	200	1	617	0	1	up.bmp	33pct	50pct	0	1	ENANWAL	50pct	50pct	491
081216	13:31:56	1	1	4.0.7.0	2	153	AA_1	down_avoid_L	100	0	0	0	0	0	208	0	1199	0	1	up.bmp	67pct	50pct	0	1	LOKANTA	50pct	50pct	491
081216	13:31:56	1	1	4.0.7.0	2	155	AA_1	up	100	100	0	0	0	0	200	1	605	0	1	UP	50pct	50pct	491	0	0	0	0	0
081216	13:31:56	1	1	4.0.7.0	2	156	AA_1	down	100	100	0	0	0	0	208	1	544	0	1	DOWN	50pct	50pct	491	0	0	0	0	0
081216	13:31:56	1	1	4.0.7.0	2	157	AA_1	up_approach_B	100	0	0	0	0	0	200	1	508	0	1	up.bmp	67pct	50pct	0	1	BAYRAM	50pct	50pct	491
081216	13:31:56	1	1	4.0.7.0	2	159	AA_1	up_avoid_E	100	0	0	0	0	0	200	0	591	0	1	up.bmp	33pct	50pct	0	1	ENANWAL	50pct	50pct	491
081216	13:31:56	1	1	4.0.7.0	2	161	AA_1	down	100	100	0	0	0	0	208	1	294	0	1	DOWN	50pct	50pct	491	0	0	0	0	0
081216	13:31:56	1	1	4.0.7.0	2	162	AA_1	down_avoid_L	100	0	0	0	0	0	208	1	197	0	1	up.bmp	67pct	50pct	0	1	LOKANTA	50pct	50pct	491
081216	13:31:56	1	1	4.0.7.0	2	164	AA_1	down_approach_U	100	0	0	0	0	0	208	1	1564	0	1	up.bmp	33pct	50pct	0	1	UDIBNON	50pct	50pct	491
081216	13:31:56	1	1	4.0.7.0	2	166	AA_1	up	100	100	0	0	0	0	200	1	499	0	1	UP	50pct	50pct	491	0	0	0	0	0
081216	13:31:56	1	1	4.0.7.0	2	167	AA_1	up_avoid_E	100	0	0	0	0	0	200	0	1626	0	1	up.bmp	33pct	50pct	0	1	ENANWAL	50pct	50pct	491
081216	13:31:56	1	1	4.0.7.0	2	169	AA_1	down_approach_U	100	0	0	0	0	0	208	1	518	0	1	up.bmp	33pct	50pct	0	1	UDIBNON	50pct	50pct	491
081216	13:31:56	1	1	4.0.7.0	2	171	AA_1	down_approach_U	100	0	0	0	0	0	208	1	441	0	1	up.bmp	33pct	50pct	0	1	UDIBNON	50pct	50pct	491
081216	13:31:56	1	1	4.0.7.0	2	173	AA_1	down_avoid_L	100	0	0	0	0	0	208	0	814	0	1	up.bmp	67pct	50pct	0	1	LOKANTA	50pct	50pct	491
081216	13:31:56	1	1	4.0.7.0	2	175	AA_1	down_avoid_L	100	0	0	0	0	0	208	1	8492	0	1	up.bmp	67pct	50pct	0	1	LOKANTA	50pct	50pct	491
081216	13:31:56	1	1	4.0.7.0	2	177	AA_1	up_avoid_E	100	0	0	0	0	0	200	1	1055	0	1	up.bmp	33pct	50pct	0	1	ENANWAL	50pct	50pct	491
081216	13:31:56	1	1	4.0.7.0	2	179	AA_1	down_approach_U	100	0	0	0	0	0	208	1	7187	0	1	up.bmp	33pct	50pct	0	1	UDIBNON	50pct	50pct	491
081216	13:31:56	1	1	4.0.7.0	4	1	AA_1	down_approach_U	100	0	0	0	0	0	208	1	867	0	1	up.bmp	33pct	50pct	0	1	UDIBNON	50pct	50pct	491
081216	13:31:56	1	1	4.0.7.0	4	3	AA_1	down_approach_U	100	0	0	0	0	0	208	0	943	0	1	up.bmp	33pct	50pct	0	1	UDIBNON	50pct	50pct	491
081216	13:31:56	1	1	4.0.7.0	4	5	AA_1	up	100	100	0	0	0	0	200	1	352	0	1	UP	50pct	50pct	491	0	0	0	0	0
081216	13:31:56	1	1	4.0.7.0	4	6	AA_1	down_approach_U	100	0	0	0	0	0	208	1	316	0	1	up.bmp	33pct	50pct	0	1	UDIBNON	50pct	50pct	491
081216	13:31:56	1	1	4.0.7.0	4	8	AA_1	up_avoid_E	100	0	0	0	0	0	200	0	10615	0	1	up.bmp	33pct	50pct	0	1	ENANWAL	50pct	50pct	491
081216	13:31:56	1	1	4.0.7.0	4	10	AA_1	down_approach_U	100	0	0	0	0	0	208	1	362	0	1	up.bmp	33pct	50pct	0	1	UDIBNON	50pct	50pct	491
081216	13:31:56	1	1	4.0.7.0	4	12	AA_1	down_approach_U	100	0	0	0	0	0	208	1	371	0	1	up.bmp	33pct	50pct	0	1	UDIBNON	50pct	50pct	491
081216	13:31:56	1	1	4.0.7.0	4	14	AA_1	down	100	100	0	0	0	0	208	1	1371	0	1	DOWN	50pct	50pct	491	0	0	0	0	0
081216	13:31:56	1	1	4.0.7.0	4	15	AA_1	up	100	100	0	0	0	0	200	0	1198	0	1	UP	50pct	50pct	491	0	0	0	0	0
081216	13:31:56	1	1	4.0.7.0	4	16	AA_1	down	100	100	0	0	0	0	208	1	1944	0	1	DOWN	50pct	50pct	491	0	0	0	0	0
081216	13:31:56	1	1	4.0.7.0	4	17	AA_1	up_approach_B	100	0	0	0	0	0	200	1	1835	0	1	up.bmp	67pct	50pct	0	1	BAYRAM	50pct	50pct	491
081216	13:31:56	1	1	4.0.7.0	4	19	AA_1	down_avoid_L	100	0	0	0	0	0	208	1	791	0	1	up.bmp	67pct	50pct	0	1	LOKANTA	50pct	50pct	491
081216	13:31:56	1	1	4.0.7.0	4	21	AA_1	down_approach_U	100	0	0	0	0	0	208	0	1598	0	1	up.bmp	33pct	50pct	0	1	UDIBNON	50pct	50pct	491
081216	13:31:56	1	1	4.0.7.0	4	23	AA_1	down	100	100	0	0	0	0	208	1	452	0	1	DOWN	50pct	50pct	491	0	0	0	0	0
081216	13:31:56	1	1	4.0.7.0	4	24	AA_1	down_approach_U	100	0	0	0	0	0	208	1	477	0	1	up.bmp	33pct	50pct	0	1	UDIBNON	50pct	50pct	491
081216	13:31:56	1	1	4.0.7.0	4	26	AA_1	down_avoid_L	100	0	0	0	0	0	208	0	2720	0	1	up.bmp	67pct	50pct	0	1	LOKANTA	50pct	50pct	491
081216	13:31:56	1	1	4.0.7.0	4	28	AA_1	up_approach_B	100	0	0	0	0	0	200	1	840	0	1	up.bmp	67pct	50pct	0	1	BAYRAM	50pct	50pct	491
081216	13:31:56	1	1	4.0.7.0	4	30	AA_1	down_avoid_L	100	0	0	0	0	0	208	1	742	0	1	up.bmp	67pct	50pct	0	1	LOKANTA	50pct	50pct	491
081216	13:31:56	1	1	4.0.7.0	4	32	AA_1	down_approach_U	100	0	0	0	0	0	208	1	854	0	1	up.bmp	33pct	50pct	0	1	UDIBNON	50pct	50pct	491
081216	13:31:56	1	1	4.0.7.0	4	34	AA_1	down	100	100	0	0	0	0	208	1	619	0	1	DOWN	50pct	50pct	491	0	0	0	0	0
081216	13:31:56	1	1	4.0.7.0	4	35	AA_1	up_approach_B	100	0	0	0	0	0	200	1	677	0	1	up.bmp	67pct	50pct	0	1	BAYRAM	50pct	50pct	491
081216	13:31:56	1	1	4.0.7.0	4	37	AA_1	down_avoid_L	100	0	0	0	0	0	208	1	617	0	1	up.bmp	67pct	50pct	0	1	LOKANTA	50pct	50pct	491
081216	13:31:56	1	1	4.0.7.0	4	39	AA_1	up_avoid_E	100	0	0	0	0	0	200	0	1735	0	1	up.bmp	33pct	50pct	0	1	ENANWAL	50pct	50pct	491
081216	13:31:56	1	1	4.0.7.0	4	41	AA_1	up_approach_B	100	0	0	0	0	0	200	1	551	0	1	up.bmp	67pct	50pct	0	1	BAYRAM	50pct	50pct	491
081216	13:31:56	1	1	4.0.7.0	4	43	AA_1	down_avoid_L	100	0	0	0	0	0	208	1	824	0	1	up.bmp	67pct	50pct	0	1	LOKANTA	50pct	50pct	491
081216	13:31:56	1	1	4.0.7.0	4	45	AA_1	up_approach_B	100	0	0	0	0	0	200	1	438	0	1	up.bmp	67pct	50pct	0	1	BAYRAM	50pct	50pct	491
081216	13:31:56	1	1	4.0.7.0	4	47	AA_1	down_approach_U	100	0	0	0	0	0	208	1	380	0	1	up.bmp	33pct	50pct	0	1	UDIBNON	50pct	50pct	491
081216	13:31:56	1	1	4.0.7.0	4	49	AA_1	down_approach_U	100	0	0	0	0	0	208	1	380	0	1	up.bmp	33pct	50pct	0	1	UDIBNON	50pct	50pct	491
081216	13:31:56	1	1	4.0.7.0	4	51	AA_1	up_avoid_E	100	0	0	0	0	0	200	0	988	0	1	up.bmp	33pct	50pct	0	1	ENANWAL	50pct	50pct	491
081216	13:31:56	1	1	4.0.7.0	4	53	AA_1	down	100	100	0	0	0	0	208	1	755	0	1	DOWN	50pct	50pct	491	0	0	0	0	0
081216	13:31:56	1	1	4.0.7.0	4	54	AA_1	down_avoid_L	100	0	0	0	0	0	208	0	1207	0	1	up.bmp	67pct	50pct	0	1	LOKANTA	50pct	50pct	491
081216	13:31:56	1	1	4.0.7.0	4	56	AA_1	down_approach_U	100	0	0	0	0	0	208	1	581	0	1	up.bmp	33pct	50pct	0	1	UDIBNON	50pct	50pct	491
081216	13:31:56	1	1	4.0.7.0	4	58	AA_1	down	100	100	0	0	0	0	208	1	517	0	1	DOWN	50pct	50pct	491	0	0	0	0	0
081216	13:31:56	1	1	4.0.7.0	4	59	AA_1	up_approach_B	100	0	0	0	0	0	200	1	771	0	1	up.bmp	67pct	50pct	0	1	BAYRAM	50pct	50pct	491
081216	13:31:56	1	1	4.0.7.0	4	61	AA_1	up	100	100	0	0	0	0	200	1	523	0	1	UP	50pct	50pct	491	0	0	0	0	0
081216	13:31:56	1	1	4.0.7.0	4	62	AA_1	up_avoid_E	100	0	0	0	0	0	200	0	3569	0	1	up.bmp	33pct	50pct	0	1	ENANWAL	50pct	50pct	491
081216	13:31:56	1	1	4.0.7.0	4	64	AA_1	up_approach_B	100	0	0	0	0	0	200	0	1838	0	1	up.bmp	67pct	50pct	0	1	BAYRAM	50pct	50pct	491
081216	13:31:56	1	1	4.0.7.0	4	66	AA_1	down_avoid_L	100	0	0	0	0	0	208	1	3058	0	1	up.bmp	67pct	50pct	0	1	LOKANTA	50pct	50pct	491
081216	13:31:56	1	1	4.0.7.0	4	68	AA_1	down_approach_U	100	0	0	0	0	0	208	1	188	0	1	up.bmp	33pct	50pct	0	1	UDIBNON	50pct	50pct	491
081216	13:31:56	1	1	4.0.7.0	4	70	AA_1	up_approach_B	100	0	0	0	0	0	200	1	268	0	1	up.bmp	67pct	50pct	0	1	BAYRAM	50pct	50pct	491
081216	13:31:56	1	1	4.0.7.0	4	72	AA_1	down_approach_U	100	0	0	0	0	0	208	1	209	0	1	up.bmp	33pct	50pct	0	1	UDIBNON	50pct	50pct	491
081216	13:31:56	1	1	4.0.7.0	4	74	AA_1	up_avoid_E	100	0	0	0	0	0	200	1	352	0	1	up.bmp	33pct	50pct	0	1	ENANWAL	50pct	50pct	491
081216	13:31:56	1	1	4.0.7.0	4	76	AA_1	up_approach_B	100	0	0	0	0	0	200	1	753	0	1	up.bmp	67pct	50pct	0	1	BAYRAM	50pct	50pct	491
081216	13:31:56	1	1	4.0.7.0	4	78	AA_1	down_approach_U	100	0	0	0	0	0	208	1	642	0	1	up.bmp	33pct	50pct	0	1	UDIBNON	50pct	50pct	491
081216	13:31:56	1	1	4.0.7.0	4	80	AA_1	up_avoid_E	100	0	0	0	0	0	200	1	647	0	1	up.bmp	33pct	50pct	0	1	ENANWAL	50pct	50pct	491
081216	13:31:56	1	1	4.0.7.0	4	82	AA_1	up_approach_B	100	0	0	0	0	0	200	1	972	0	1	up.bmp	67pct	50pct	0	1	BAYRAM	50pct	50pct	491
081216	13:31:56	1	1	4.0.7.0	4	84	AA_1	up_approach_B	100	0	0	0	0	0	200	1	428	0	1	up.bmp	67pct	50pct	0	1	BAYRAM	50pct	50pct	491
081216	13:31:56	1	1	4.0.7.0	4	86	AA_1	up_avoid_E	100	0	0	0	0	0	200	1	866	0	1	up.bmp	33pct	50pct	0	1	ENANWAL	50pct	50pct	491
081216	13:31:56	1	1	4.0.7.0	4	88	AA_1	down	100	100	0	0	0	0	208	1	502	0	1	DOWN	50pct	50pct	491	0	0	0	0	0
081216	13:31:56	1	1	4.0.7.0	4	89	AA_1	down_avoid_L	100	0	0	0	0	0	208	1	916	0	1	up.bmp	67pct	50pct	0	1	LOKANTA	50pct	50pct	491
081216	13:31:56	1	1	4.0.7.0	4	91	AA_1	up_approach_B	100	0	0	0	0	0	200	1	526	0	1	up.bmp	67pct	50pct	0	1	BAYRAM	50pct	50pct	491
081216	13:31:56	1	1	4.0.7.0	4	93	AA_1	up_avoid_E	100	0	0	0	0	0	200	1	824	0	1	up.bmp	33pct	50pct	0	1	ENANWAL	50pct	50pct	491
081216	13:31:56	1	1	4.0.7.0	4	95	AA_1	up_avoid_E	100	0	0	0	0	0	200	1	429	0	1	up.bmp	33pct	50pct	0	1	ENANWAL	50pct	50pct	491
081216	13:31:56	1	1	4.0.7.0	4	97	AA_1	up	100	100	0	0	0	0	200	1	491	0	1	UP	50pct	50pct	491	0	0	0	0	0
081216	13:31:56	1	1	4.0.7.0	4	98	AA_1	down_avoid_L	100	0	0	0	0	0	208	1	698	0	1	up.bmp	67pct	50pct	0	1	LOKANTA	50pct	50pct	491
081216	13:31:56	1	1	4.0.7.0	4	100	AA_1	down_approach_U	100	0	0	0	0	0	208	1	573	0	1	up.bmp	33pct	50pct	0	1	UDIBNON	50pct	50pct	491
081216	13:31:56	1	1	4.0.7.0	4	102	AA_1	up_approach_B	100	0	0	0	0	0	200	1	645	0	1	up.bmp	67pct	50pct	0	1	BAYRAM	50pct	50pct	491
081216	13:31:56	1	1	4.0.7.0	4	104	AA_1	down_approach_U	100	0	0	0	0	0	208	1	1082	0	1	up.bmp	33pct	50pct	0	1	UDIBNON	50pct	50pct	491
081216	13:31:56	1	1	4.0.7.0	4	106	AA_1	up_approach_B	100	0	0	0	0	0	200	1	485	0	1	up.bmp	67pct	50pct	0	1	BAYRAM	50pct	50pct	491
081216	13:31:56	1	1	4.0.7.0	4	108	AA_1	down_avoid_L	100	0	0	0	0	0	208	1	561	0	1	up.bmp	67pct	50pct	0	1	LOKANTA	50pct	50pct	491
081216	13:31:56	1	1	4.0.7.0	4	110	AA_1	up_avoid_E	100	0	0	0	0	0	200	0	1001	0	1	up.bmp	33pct	50pct	0	1	ENANWAL	50pct	50pct	491
081216	13:31:56	1	1	4.0.7.0	4	112	AA_1	down_avoid_L	100	0	0	0	0	0	208	1	4296	0	1	up.bmp	67pct	50pct	0	1	LOKANTA	50pct	50pct	491
081216	13:31:56	1	1	4.0.7.0	4	114	AA_1	down_avoid_L	100	0	0	0	0	0	208	1	471	0	1	up.bmp	67pct	50pct	0	1	LOKANTA	50pct	50pct	491
081216	13:31:56	1	1	4.0.7.0	4	116	AA_1	up_approach_B	100	0	0	0	0	0	200	1	547	0	1	up.bmp	67pct	50pct	0	1	BAYRAM	50pct	50pct	491
081216	13:31:56	1	1	4.0.7.0	4	118	AA_1	down_approach_U	100	0	0	0	0	0	208	1	1004	0	1	up.bmp	33pct	50pct	0	1	UDIBNON	50pct	50pct	491
081216	13:31:56	1	1	4.0.7.0	4	120	AA_1	down_avoid_L	100	0	0	0	0	0	208	1	811	0	1	up.bmp	67pct	50pct	0	1	LOKANTA	50pct	50pct	491
081216	13:31:56	1	1	4.0.7.0	4	122	AA_1	up_avoid_E	100	0	0	0	0	0	200	1	649	0	1	up.bmp	33pct	50pct	0	1	ENANWAL	50pct	50pct	491
081216	13:31:56	1	1	4.0.7.0	4	124	AA_1	up_avoid_E	100	0	0	0	0	0	200	1	606	0	1	up.bmp	33pct	50pct	0	1	ENANWAL	50pct	50pct	491
081216	13:31:56	1	1	4.0.7.0	4	126	AA_1	up_avoid_E	100	0	0	0	0	0	200	1	461	0	1	up.bmp	33pct	50pct	0	1	ENANWAL	50pct	50pct	491
081216	13:31:56	1	1	4.0.7.0	4	128	AA_1	up_approach_B	100	0	0	0	0	0	200	1	625	0	1	up.bmp	67pct	50pct	0	1	BAYRAM	50pct	50pct	491
081216	13:31:56	1	1	4.0.7.0	4	130	AA_1	down_approach_U	100	0	0	0	0	0	208	1	791	0	1	up.bmp	33pct	50pct	0	1	UDIBNON	50pct	50pct	491
081216	13:31:56	1	1	4.0.7.0	4	132	AA_1	down_avoid_L	100	0	0	0	0	0	208	0	1270	0	1	up.bmp	67pct	50pct	0	1	LOKANTA	50pct	50pct	491
081216	13:31:56	1	1	4.0.7.0	4	134	AA_1	down_avoid_L	100	0	0	0	0	0	208	1	601	0	1	up.bmp	67pct	50pct	0	1	LOKANTA	50pct	50pct	491
081216	13:31:56	1	1	4.0.7.0	4	136	AA_1	up	100	100	0	0	0	0	200	1	504	0	1	UP	50pct	50pct	491	0	0	0	0	0
081216	13:31:56	1	1	4.0.7.0	4	137	AA_1	down_avoid_L	100	0	0	0	0	0	208	0	423	0	1	up.bmp	67pct	50pct	0	1	LOKANTA	50pct	50pct	491
081216	13:31:56	1	1	4.0.7.0	4	139	AA_1	down_avoid_L	100	0	0	0	0	0	208	1	581	0	1	up.bmp	67pct	50pct	0	1	LOKANTA	50pct	50pct	491
081216	13:31:56	1	1	4.0.7.0	4	141	AA_1	up	100	100	0	0	0	0	200	1	437	0	1	UP	50pct	50pct	491	0	0	0	0	0
081216	13:31:56	1	1	4.0.7.0	4	142	AA_1	up_avoid_E	100	0	0	0	0	0	200	1	1174	0	1	up.bmp	33pct	50pct	0	1	ENANWAL	50pct	50pct	491
081216	13:31:56	1	1	4.0.7.0	4	144	AA_1	down_avoid_L	100	0	0	0	0	0	208	1	718	0	1	up.bmp	67pct	50pct	0	1	LOKANTA	50pct	50pct	491
081216	13:31:56	1	1	4.0.7.0	4	146	AA_1	down_avoid_L	100	0	0	0	0	0	208	1	600	0	1	up.bmp	67pct	50pct	0	1	LOKANTA	50pct	50pct	491
081216	13:31:56	1	1	4.0.7.0	4	148	AA_1	up_approach_B	100	0	0	0	0	0	200	1	743	0	1	up.bmp	67pct	50pct	0	1	BAYRAM	50pct	50pct	491
081216	13:31:56	1	1	4.0.7.0	4	150	AA_1	up_approach_B	100	0	0	0	0	0	200	1	552	0	1	up.bmp	67pct	50pct	0	1	BAYRAM	50pct	50pct	491
081216	13:31:56	1	1	4.0.7.0	4	152	AA_1	down_avoid_L	100	0	0	0	0	0	208	1	737	0	1	up.bmp	67pct	50pct	0	1	LOKANTA	50pct	50pct	491
081216	13:31:56	1	1	4.0.7.0	4	154	AA_1	down_approach_U	100	0	0	0	0	0	208	1	914	0	1	up.bmp	33pct	50pct	0	1	UDIBNON	50pct	50pct	491
081216	13:31:56	1	1	4.0.7.0	4	156	AA_1	up_avoid_E	100	0	0	0	0	0	200	1	572	0	1	up.bmp	33pct	50pct	0	1	ENANWAL	50pct	50pct	491
081216	13:31:56	1	1	4.0.7.0	4	158	AA_1	down_approach_U	100	0	0	0	0	0	208	1	485	0	1	up.bmp	33pct	50pct	0	1	UDIBNON	50pct	50pct	491
081216	13:31:56	1	1	4.0.7.0	4	160	AA_1	up_avoid_E	100	0	0	0	0	0	200	1	432	0	1	up.bmp	33pct	50pct	0	1	ENANWAL	50pct	50pct	491
081216	13:31:56	1	1	4.0.7.0	4	162	AA_1	up_avoid_E	100	0	0	0	0	0	200	1	494	0	1	up.bmp	33pct	50pct	0	1	ENANWAL	50pct	50pct	491
081216	13:31:56	1	1	4.0.7.0	4	164	AA_1	up_avoid_E	100	0	0	0	0	0	200	1	489	0	1	up.bmp	33pct	50pct	0	1	ENANWAL	50pct	50pct	491
081216	13:31:56	1	1	4.0.7.0	4	166	AA_1	up_avoid_E	100	0	0	0	0	0	200	1	381	0	1	up.bmp	33pct	50pct	0	1	ENANWAL	50pct	50pct	491
081216	13:31:56	1	1	4.0.7.0	4	168	AA_1	up_approach_B	100	0	0	0	0	0	200	1	549	0	1	up.bmp	67pct	50pct	0	1	BAYRAM	50pct	50pct	491
081216	13:31:56	1	1	4.0.7.0	4	170	AA_1	up	100	100	0	0	0	0	200	1	486	0	1	UP	50pct	50pct	491	0	0	0	0	0
081216	13:31:56	1	1	4.0.7.0	4	171	AA_1	down	100	100	0	0	0	0	208	1	509	0	1	DOWN	50pct	50pct	491	0	0	0	0	0
081216	13:31:56	1	1	4.0.7.0	4	172	AA_1	up_avoid_E	100	0	0	0	0	0	200	0	1227	0	1	up.bmp	33pct	50pct	0	1	ENANWAL	50pct	50pct	491
081216	13:31:56	1	1	4.0.7.0	4	174	AA_1	up	100	100	0	0	0	0	200	1	400	0	1	UP	50pct	50pct	491	0	0	0	0	0
081216	13:31:56	1	1	4.0.7.0	4	175	AA_1	down	100	100	0	0	0	0	208	1	779	0	1	DOWN	50pct	50pct	491	0	0	0	0	0
081216	13:31:56	1	1	4.0.7.0	4	176	AA_1	up_approach_B	100	0	0	0	0	0	200	1	1166	0	1	up.bmp	67pct	50pct	0	1	BAYRAM	50pct	50pct	491
081216	13:31:56	1	1	4.0.7.0	4	178	AA_1	up	100	100	0	0	0	0	200	1	446	0	1	UP	50pct	50pct	491	0	0	0	0	0
081216	13:31:56	1	1	4.0.7.0	4	179	AA_1	up	100	100	0	0	0	0	200	1	334	0	1	UP	50pct	50pct	491	0	0	0	0	0
081216	13:31:56	1	1	4.0.7.0	4	180	AA_1	down	100	100	0	0	0	0	208	1	660	0	1	DOWN	50pct	50pct	491	0	0	0	0	0
081216	13:31:56	1	1	4.0.7.0	5	1	no	wait	0	0	0	0	0	0	0	0	3000	0	1		50pct	50pct	0	0	0	0	0	0
081216	13:31:56	1	1	4.0.7.0	7	1	1IAT_EU	wait	0	0	0	0	0	0	0	0	3000	0	1		50pct	50pct	0	0	0	0	0	0
081216	13:31:56	1	1	4.0.7.0	7	2	1IAT_EU	ENAleft4	200	200	0	0	0	0	33	1	1061	0	1	Enanwal	50pct	50pct	0	0	0	0	0	0
081216	13:31:56	1	1	4.0.7.0	7	3	1IAT_EU	ENAleft1	200	200	0	0	0	0	33	1	570	0	1	ENANWAL	50pct	50pct	0	0	0	0	0	0
081216	13:31:56	1	1	4.0.7.0	7	4	1IAT_EU	ENAleft6	200	200	0	0	0	0	33	1	379	0	1	Enanwal	50pct	50pct	0	0	0	0	0	0
081216	13:31:56	1	1	4.0.7.0	7	5	1IAT_EU	ENAleft5	200	200	0	0	0	0	36	0	396	0	1	ENANWAL	50pct	50pct	0	1	X	50pct	50pct	400
081216	13:31:56	1	1	4.0.7.0	7	6	1IAT_EU	ENAleft3	200	200	0	0	0	0	33	1	388	0	1	ENANWAL	50pct	50pct	0	0	0	0	0	0
081216	13:31:56	1	1	4.0.7.0	7	7	1IAT_EU	UDIright3	200	200	0	0	0	0	33	0	364	0	1	UDIBNON	50pct	50pct	0	1	X	50pct	50pct	367
081216	13:31:56	1	1	4.0.7.0	7	8	1IAT_EU	UDIright8	200	200	0	0	0	0	36	1	397	0	1	Udibnon	50pct	50pct	0	0	0	0	0	0
081216	13:31:56	1	1	4.0.7.0	7	9	1IAT_EU	UDIright1	200	200	0	0	0	0	36	1	317	0	1	UDIBNON	50pct	50pct	0	0	0	0	0	0
081216	13:31:56	1	1	4.0.7.0	7	10	1IAT_EU	ENAleft7	200	200	0	0	0	0	33	1	424	0	1	ENANWAL	50pct	50pct	0	0	0	0	0	0
081216	13:31:56	1	1	4.0.7.0	7	11	1IAT_EU	UDIright5	200	200	0	0	0	0	36	1	456	0	1	UDIBNON	50pct	50pct	0	0	0	0	0	0
081216	13:31:56	1	1	4.0.7.0	7	12	1IAT_EU	UDIright4	200	200	0	0	0	0	33	0	373	0	1	Udibnon	50pct	50pct	0	1	X	50pct	50pct	383
081216	13:31:56	1	1	4.0.7.0	7	13	1IAT_EU	ENAleft8	200	200	0	0	0	0	33	1	526	0	1	Enanwal	50pct	50pct	0	0	0	0	0	0
081216	13:31:56	1	1	4.0.7.0	7	14	1IAT_EU	ENAleft2	200	200	0	0	0	0	33	1	545	0	1	Enanwal	50pct	50pct	0	0	0	0	0	0
081216	13:31:56	1	1	4.0.7.0	7	15	1IAT_EU	UDIright7	200	200	0	0	0	0	33	0	363	0	1	UDIBNON	50pct	50pct	0	1	X	50pct	50pct	367
081216	13:31:56	1	1	4.0.7.0	7	16	1IAT_EU	UDIright2	200	200	0	0	0	0	36	1	436	0	1	Udibnon	50pct	50pct	0	0	0	0	0	0
081216	13:31:56	1	1	4.0.7.0	7	17	1IAT_EU	UDIright6	200	200	0	0	0	0	36	1	370	0	1	Udibnon	50pct	50pct	0	0	0	0	0	0
081216	13:31:56	1	1	4.0.7.0	8	1	2IAT	wait	0	0	0	0	0	0	0	0	3000	0	1		50pct	50pct	0	0	0	0	0	0
081216	13:31:56	1	1	4.0.7.0	8	2	2IAT	negative	200	200	0	0	0	0	33	1	1514	0	1	Agony	50pct	50pct	0	0	0	0	0	0
081216	13:31:56	1	1	4.0.7.0	8	3	2IAT	positive	200	200	0	0	0	0	36	1	493	0	2	Beautiful	50pct	50pct	0	0	0	0	0	0
081216	13:31:56	1	1	4.0.7.0	8	4	2IAT	negative	200	200	0	0	0	0	33	1	521	0	2	Evil	50pct	50pct	0	0	0	0	0	0
081216	13:31:56	1	1	4.0.7.0	8	5	2IAT	negative	200	200	0	0	0	0	33	1	452	0	4	Sadness	50pct	50pct	0	0	0	0	0	0
081216	13:31:56	1	1	4.0.7.0	8	6	2IAT	positive	200	200	0	0	0	0	36	1	474	0	1	Wonderful	50pct	50pct	0	0	0	0	0	0
081216	13:31:56	1	1	4.0.7.0	8	7	2IAT	positive	200	200	0	0	0	0	36	1	543	0	3	Glorious	50pct	50pct	0	0	0	0	0	0
081216	13:31:56	1	1	4.0.7.0	8	8	2IAT	positive	200	200	0	0	0	0	36	1	417	0	4	Marvelous	50pct	50pct	0	0	0	0	0	0
081216	13:31:56	1	1	4.0.7.0	8	9	2IAT	negative	200	200	0	0	0	0	33	1	440	0	3	Failure	50pct	50pct	0	0	0	0	0	0
081216	13:31:56	1	1	4.0.7.0	8	10	2IAT	positive	200	200	0	0	0	0	36	1	550	0	5	Success	50pct	50pct	0	0	0	0	0	0
081216	13:31:56	1	1	4.0.7.0	8	11	2IAT	negative	200	200	0	0	0	0	36	0	368	0	5	Unpleasant	50pct	50pct	0	1	X	50pct	50pct	383
081216	13:31:56	1	1	4.0.7.0	8	12	2IAT	negative	200	200	0	0	0	0	36	0	536	0	4	Sadness	50pct	50pct	0	1	X	50pct	50pct	550
081216	13:31:56	1	1	4.0.7.0	8	13	2IAT	positive	200	200	0	0	0	0	36	1	515	0	3	Glorious	50pct	50pct	0	0	0	0	0	0
081216	13:31:56	1	1	4.0.7.0	8	14	2IAT	positive	200	200	0	0	0	0	36	1	606	0	5	Success	50pct	50pct	0	0	0	0	0	0
081216	13:31:56	1	1	4.0.7.0	8	15	2IAT	positive	200	200	0	0	0	0	36	1	477	0	2	Beautiful	50pct	50pct	0	0	0	0	0	0
081216	13:31:56	1	1	4.0.7.0	8	16	2IAT	negative	200	200	0	0	0	0	33	1	514	0	5	Unpleasant	50pct	50pct	0	0	0	0	0	0
081216	13:31:56	1	1	4.0.7.0	8	17	2IAT	negative	200	200	0	0	0	0	33	1	366	0	1	Agony	50pct	50pct	0	0	0	0	0	0
081216	13:31:56	1	1	4.0.7.0	9	1	3IAT_EU	wait	0	0	0	0	0	0	0	0	3000	0	1		50pct	50pct	0	0	0	0	0	0
081216	13:31:56	1	1	4.0.7.0	9	2	3IAT_EU	ENAleft6	200	200	0	0	0	0	33	1	790	0	1	Enanwal	50pct	50pct	0	0	0	0	0	0
081216	13:31:56	1	1	4.0.7.0	9	3	3IAT_EU	positive	200	200	0	0	0	0	33	0	478	0	1	Wonderful	50pct	50pct	0	1	X	50pct	50pct	483
081216	13:31:56	1	1	4.0.7.0	9	4	3IAT_EU	negative	200	200	0	0	0	0	36	0	3458	0	3	Failure	50pct	50pct	0	1	X	50pct	50pct	3470
081216	13:31:56	1	1	4.0.7.0	9	5	3IAT_EU	ENAleft7	200	200	0	0	0	0	33	1	1667	0	1	ENANWAL	50pct	50pct	0	0	0	0	0	0
081216	13:31:56	1	1	4.0.7.0	9	6	3IAT_EU	UDIright7	200	200	0	0	0	0	36	1	615	0	1	UDIBNON	50pct	50pct	0	0	0	0	0	0
081216	13:31:56	1	1	4.0.7.0	9	7	3IAT_EU	ENAleft5	200	200	0	0	0	0	33	1	614	0	1	ENANWAL	50pct	50pct	0	0	0	0	0	0
081216	13:31:56	1	1	4.0.7.0	9	8	3IAT_EU	positive	200	200	0	0	0	0	36	1	1278	0	4	Marvelous	50pct	50pct	0	0	0	0	0	0
081216	13:31:56	1	1	4.0.7.0	9	9	3IAT_EU	negative	200	200	0	0	0	0	33	1	1314	0	2	Evil	50pct	50pct	0	0	0	0	0	0
081216	13:31:56	1	1	4.0.7.0	9	10	3IAT_EU	UDIright3	200	200	0	0	0	0	36	1	541	0	1	UDIBNON	50pct	50pct	0	0	0	0	0	0
081216	13:31:56	1	1	4.0.7.0	9	11	3IAT_EU	UDIright4	200	200	0	0	0	0	36	1	575	0	1	Udibnon	50pct	50pct	0	0	0	0	0	0
081216	13:31:56	1	1	4.0.7.0	9	12	3IAT_EU	ENAleft2	200	200	0	0	0	0	33	1	520	0	1	Enanwal	50pct	50pct	0	0	0	0	0	0
081216	13:31:56	1	1	4.0.7.0	9	13	3IAT_EU	ENAleft1	200	200	0	0	0	0	33	1	387	0	1	ENANWAL	50pct	50pct	0	0	0	0	0	0
081216	13:31:56	1	1	4.0.7.0	9	14	3IAT_EU	negative	200	200	0	0	0	0	33	1	491	0	4	Sadness	50pct	50pct	0	0	0	0	0	0
081216	13:31:56	1	1	4.0.7.0	9	15	3IAT_EU	UDIright2	200	200	0	0	0	0	36	1	592	0	1	Udibnon	50pct	50pct	0	0	0	0	0	0
081216	13:31:56	1	1	4.0.7.0	9	16	3IAT_EU	positive	200	200	0	0	0	0	36	1	368	0	2	Beautiful	50pct	50pct	0	0	0	0	0	0
081216	13:31:56	1	1	4.0.7.0	9	17	3IAT_EU	positive	200	200	0	0	0	0	36	1	433	0	1	Wonderful	50pct	50pct	0	0	0	0	0	0
081216	13:31:56	1	1	4.0.7.0	9	18	3IAT_EU	UDIright6	200	200	0	0	0	0	36	1	375	0	1	Udibnon	50pct	50pct	0	0	0	0	0	0
081216	13:31:56	1	1	4.0.7.0	9	19	3IAT_EU	ENAleft4	200	200	0	0	0	0	33	1	504	0	1	Enanwal	50pct	50pct	0	0	0	0	0	0
081216	13:31:56	1	1	4.0.7.0	9	20	3IAT_EU	positive	200	200	0	0	0	0	33	0	660	0	3	Glorious	50pct	50pct	0	1	X	50pct	50pct	667
081216	13:31:56	1	1	4.0.7.0	9	21	3IAT_EU	negative	200	200	0	0	0	0	36	0	1177	0	3	Failure	50pct	50pct	0	1	X	50pct	50pct	1184
081216	13:31:56	1	1	4.0.7.0	9	22	3IAT_EU	UDIright8	200	200	0	0	0	0	36	1	552	0	1	Udibnon	50pct	50pct	0	0	0	0	0	0
081216	13:31:56	1	1	4.0.7.0	9	23	3IAT_EU	ENAleft3	200	200	0	0	0	0	33	1	634	0	1	ENANWAL	50pct	50pct	0	0	0	0	0	0
081216	13:31:56	1	1	4.0.7.0	9	24	3IAT_EU	negative	200	200	0	0	0	0	33	1	1000	0	5	Unpleasant	50pct	50pct	0	0	0	0	0	0
081216	13:31:56	1	1	4.0.7.0	9	25	3IAT_EU	positive	200	200	0	0	0	0	36	1	703	0	4	Marvelous	50pct	50pct	0	0	0	0	0	0
081216	13:31:56	1	1	4.0.7.0	9	26	3IAT_EU	negative	200	200	0	0	0	0	33	1	570	0	2	Evil	50pct	50pct	0	0	0	0	0	0
081216	13:31:56	1	1	4.0.7.0	9	27	3IAT_EU	ENAleft8	200	200	0	0	0	0	33	1	651	0	1	Enanwal	50pct	50pct	0	0	0	0	0	0
081216	13:31:56	1	1	4.0.7.0	9	28	3IAT_EU	negative	200	200	0	0	0	0	36	0	585	0	1	Agony	50pct	50pct	0	1	X	50pct	50pct	600
081216	13:31:56	1	1	4.0.7.0	9	29	3IAT_EU	UDIright1	200	200	0	0	0	0	36	1	576	0	1	UDIBNON	50pct	50pct	0	0	0	0	0	0
081216	13:31:56	1	1	4.0.7.0	9	30	3IAT_EU	positive	200	200	0	0	0	0	36	1	1113	0	5	Success	50pct	50pct	0	0	0	0	0	0
081216	13:31:56	1	1	4.0.7.0	9	31	3IAT_EU	negative	200	200	0	0	0	0	33	1	612	0	1	Agony	50pct	50pct	0	0	0	0	0	0
081216	13:31:56	1	1	4.0.7.0	9	32	3IAT_EU	UDIright5	200	200	0	0	0	0	33	0	436	0	1	UDIBNON	50pct	50pct	0	1	X	50pct	50pct	450
081216	13:31:56	1	1	4.0.7.0	9	33	3IAT_EU	positive	200	200	0	0	0	0	36	1	689	0	2	Beautiful	50pct	50pct	0	0	0	0	0	0
081216	13:31:56	1	1	4.0.7.0	10	1	4IAT_EU	wait	0	0	0	0	0	0	0	0	3000	0	1		50pct	50pct	0	0	0	0	0	0
081216	13:31:56	1	1	4.0.7.0	10	2	4IAT_EU	UDIright3	200	200	0	0	0	0	36	1	593	0	1	UDIBNON	50pct	50pct	0	0	0	0	0	0
081216	13:31:56	1	1	4.0.7.0	10	3	4IAT_EU	negative	200	200	0	0	0	0	36	0	18	0	2	Evil	50pct	50pct	0	1	X	50pct	50pct	33
081216	13:31:56	1	1	4.0.7.0	10	4	4IAT_EU	positive	200	200	0	0	0	0	36	1	776	0	1	Wonderful	50pct	50pct	0	0	0	0	0	0
081216	13:31:56	1	1	4.0.7.0	10	5	4IAT_EU	UDIright1	200	200	0	0	0	0	36	1	401	0	1	UDIBNON	50pct	50pct	0	0	0	0	0	0
081216	13:31:56	1	1	4.0.7.0	10	6	4IAT_EU	ENAleft8	200	200	0	0	0	0	36	0	353	0	1	Enanwal	50pct	50pct	0	1	X	50pct	50pct	367
081216	13:31:56	1	1	4.0.7.0	10	7	4IAT_EU	ENAleft2	200	200	0	0	0	0	33	1	418	0	1	Enanwal	50pct	50pct	0	0	0	0	0	0
081216	13:31:56	1	1	4.0.7.0	10	8	4IAT_EU	ENAleft7	200	200	0	0	0	0	33	1	401	0	1	ENANWAL	50pct	50pct	0	0	0	0	0	0
081216	13:31:56	1	1	4.0.7.0	10	9	4IAT_EU	positive	200	200	0	0	0	0	36	1	593	0	4	Marvelous	50pct	50pct	0	0	0	0	0	0
081216	13:31:56	1	1	4.0.7.0	10	10	4IAT_EU	positive	200	200	0	0	0	0	33	0	585	0	5	Success	50pct	50pct	0	1	X	50pct	50pct	600
081216	13:31:56	1	1	4.0.7.0	10	11	4IAT_EU	UDIright8	200	200	0	0	0	0	36	1	496	0	1	Udibnon	50pct	50pct	0	0	0	0	0	0
081216	13:31:56	1	1	4.0.7.0	10	12	4IAT_EU	UDIright6	200	200	0	0	0	0	36	1	421	0	1	Udibnon	50pct	50pct	0	0	0	0	0	0
081216	13:31:56	1	1	4.0.7.0	10	13	4IAT_EU	negative	200	200	0	0	0	0	36	0	524	0	4	Sadness	50pct	50pct	0	1	X	50pct	50pct	533
081216	13:31:56	1	1	4.0.7.0	10	14	4IAT_EU	positive	200	200	0	0	0	0	36	1	694	0	3	Glorious	50pct	50pct	0	0	0	0	0	0
081216	13:31:56	1	1	4.0.7.0	10	15	4IAT_EU	ENAleft3	200	200	0	0	0	0	33	1	602	0	1	ENANWAL	50pct	50pct	0	0	0	0	0	0
081216	13:31:56	1	1	4.0.7.0	10	16	4IAT_EU	ENAleft5	200	200	0	0	0	0	33	1	426	0	1	ENANWAL	50pct	50pct	0	0	0	0	0	0
081216	13:31:56	1	1	4.0.7.0	10	17	4IAT_EU	ENAleft4	200	200	0	0	0	0	33	1	441	0	1	Enanwal	50pct	50pct	0	0	0	0	0	0
081216	13:31:56	1	1	4.0.7.0	10	18	4IAT_EU	negative	200	200	0	0	0	0	33	1	1239	0	5	Unpleasant	50pct	50pct	0	0	0	0	0	0
081216	13:31:56	1	1	4.0.7.0	10	19	4IAT_EU	UDIright5	200	200	0	0	0	0	36	1	765	0	1	UDIBNON	50pct	50pct	0	0	0	0	0	0
081216	13:31:56	1	1	4.0.7.0	10	20	4IAT_EU	negative	200	200	0	0	0	0	33	1	886	0	3	Failure	50pct	50pct	0	0	0	0	0	0
081216	13:31:56	1	1	4.0.7.0	10	21	4IAT_EU	negative	200	200	0	0	0	0	33	1	578	0	1	Agony	50pct	50pct	0	0	0	0	0	0
081216	13:31:56	1	1	4.0.7.0	10	22	4IAT_EU	positive	200	200	0	0	0	0	33	0	475	0	5	Success	50pct	50pct	0	1	X	50pct	50pct	483
081216	13:31:56	1	1	4.0.7.0	10	23	4IAT_EU	negative	200	200	0	0	0	0	36	0	527	0	5	Unpleasant	50pct	50pct	0	1	X	50pct	50pct	533
081216	13:31:56	1	1	4.0.7.0	10	24	4IAT_EU	positive	200	200	0	0	0	0	36	1	1273	0	3	Glorious	50pct	50pct	0	0	0	0	0	0
081216	13:31:56	1	1	4.0.7.0	10	25	4IAT_EU	ENAleft6	200	200	0	0	0	0	33	1	685	0	1	Enanwal	50pct	50pct	0	0	0	0	0	0
081216	13:31:56	1	1	4.0.7.0	10	26	4IAT_EU	ENAleft1	200	200	0	0	0	0	33	1	441	0	1	ENANWAL	50pct	50pct	0	0	0	0	0	0
081216	13:31:56	1	1	4.0.7.0	10	27	4IAT_EU	UDIright7	200	200	0	0	0	0	36	1	520	0	1	UDIBNON	50pct	50pct	0	0	0	0	0	0
081216	13:31:56	1	1	4.0.7.0	10	28	4IAT_EU	positive	200	200	0	0	0	0	36	1	899	0	1	Wonderful	50pct	50pct	0	0	0	0	0	0
081216	13:31:56	1	1	4.0.7.0	10	29	4IAT_EU	negative	200	200	0	0	0	0	33	1	903	0	2	Evil	50pct	50pct	0	0	0	0	0	0
081216	13:31:56	1	1	4.0.7.0	10	30	4IAT_EU	positive	200	200	0	0	0	0	36	1	610	0	4	Marvelous	50pct	50pct	0	0	0	0	0	0
081216	13:31:56	1	1	4.0.7.0	10	31	4IAT_EU	UDIright4	200	200	0	0	0	0	36	1	801	0	1	Udibnon	50pct	50pct	0	0	0	0	0	0
081216	13:31:56	1	1	4.0.7.0	10	32	4IAT_EU	UDIright2	200	200	0	0	0	0	36	1	424	0	1	Udibnon	50pct	50pct	0	0	0	0	0	0
081216	13:31:56	1	1	4.0.7.0	10	33	4IAT_EU	negative	200	200	0	0	0	0	33	1	936	0	3	Failure	50pct	50pct	0	0	0	0	0	0
081216	13:31:56	1	1	4.0.7.0	11	1	5IAT_EU	wait	0	0	0	0	0	0	0	0	3000	0	1		50pct	50pct	0	0	0	0	0	0
081216	13:31:56	1	1	4.0.7.0	11	2	5IAT_EU	ENAright6	200	200	0	0	0	0	36	1	893	0	1	Enanwal	50pct	50pct	0	0	0	0	0	0
081216	13:31:56	1	1	4.0.7.0	11	3	5IAT_EU	UDIleft5	200	200	0	0	0	0	33	1	489	0	1	UDIBNON	50pct	50pct	0	0	0	0	0	0
081216	13:31:56	1	1	4.0.7.0	11	4	5IAT_EU	ENAright2	200	200	0	0	0	0	36	1	477	0	1	Enanwal	50pct	50pct	0	0	0	0	0	0
081216	13:31:56	1	1	4.0.7.0	11	5	5IAT_EU	UDIleft6	200	200	0	0	0	0	33	1	482	0	1	Udibnon	50pct	50pct	0	0	0	0	0	0
081216	13:31:56	1	1	4.0.7.0	11	6	5IAT_EU	UDIleft3	200	200	0	0	0	0	33	1	383	0	1	UDIBNON	50pct	50pct	0	0	0	0	0	0
081216	13:31:56	1	1	4.0.7.0	11	7	5IAT_EU	ENAright1	200	200	0	0	0	0	36	1	415	0	1	ENANWAL	50pct	50pct	0	0	0	0	0	0
081216	13:31:56	1	1	4.0.7.0	11	8	5IAT_EU	UDIleft2	200	200	0	0	0	0	33	1	479	0	1	Udibnon	50pct	50pct	0	0	0	0	0	0
081216	13:31:56	1	1	4.0.7.0	11	9	5IAT_EU	ENAright7	200	200	0	0	0	0	33	0	364	0	1	ENANWAL	50pct	50pct	0	1	X	50pct	50pct	367
081216	13:31:56	1	1	4.0.7.0	11	10	5IAT_EU	ENAright8	200	200	0	0	0	0	36	1	373	0	1	Enanwal	50pct	50pct	0	0	0	0	0	0
081216	13:31:56	1	1	4.0.7.0	11	11	5IAT_EU	ENAright4	200	200	0	0	0	0	36	1	454	0	1	Enanwal	50pct	50pct	0	0	0	0	0	0
081216	13:31:56	1	1	4.0.7.0	11	12	5IAT_EU	UDIleft1	200	200	0	0	0	0	33	1	443	0	1	UDIBNON	50pct	50pct	0	0	0	0	0	0
081216	13:31:56	1	1	4.0.7.0	11	13	5IAT_EU	UDIleft8	200	200	0	0	0	0	33	1	370	0	1	Udibnon	50pct	50pct	0	0	0	0	0	0
081216	13:31:56	1	1	4.0.7.0	11	14	5IAT_EU	UDIleft4	200	200	0	0	0	0	33	1	355	0	1	Udibnon	50pct	50pct	0	0	0	0	0	0
081216	13:31:56	1	1	4.0.7.0	11	15	5IAT_EU	UDIleft7	200	200	0	0	0	0	33	1	397	0	1	UDIBNON	50pct	50pct	0	0	0	0	0	0
081216	13:31:56	1	1	4.0.7.0	11	16	5IAT_EU	ENAright5	200	200	0	0	0	0	36	1	397	0	1	ENANWAL	50pct	50pct	0	0	0	0	0	0
081216	13:31:56	1	1	4.0.7.0	11	17	5IAT_EU	ENAright3	200	200	0	0	0	0	36	1	350	0	1	ENANWAL	50pct	50pct	0	0	0	0	0	0
081216	13:31:56	1	1	4.0.7.0	12	1	6IAT_EU	wait	0	0	0	0	0	0	0	0	3000	0	1		50pct	50pct	0	0	0	0	0	0
081216	13:31:56	1	1	4.0.7.0	12	2	6IAT_EU	negative	200	200	0	0	0	0	33	1	1348	0	4	Sadness	50pct	50pct	0	0	0	0	0	0
081216	13:31:56	1	1	4.0.7.0	12	3	6IAT_EU	UDIleft5	200	200	0	0	0	0	33	1	310	0	1	UDIBNON	50pct	50pct	0	0	0	0	0	0
081216	13:31:56	1	1	4.0.7.0	12	4	6IAT_EU	ENAright5	200	200	0	0	0	0	36	1	353	0	1	ENANWAL	50pct	50pct	0	0	0	0	0	0
081216	13:31:56	1	1	4.0.7.0	12	5	6IAT_EU	ENAright3	200	200	0	0	0	0	36	1	355	0	1	ENANWAL	50pct	50pct	0	0	0	0	0	0
081216	13:31:56	1	1	4.0.7.0	12	6	6IAT_EU	UDIleft4	200	200	0	0	0	0	33	1	557	0	1	Udibnon	50pct	50pct	0	0	0	0	0	0
081216	13:31:56	1	1	4.0.7.0	12	7	6IAT_EU	positive	200	200	0	0	0	0	36	1	415	0	2	Beautiful	50pct	50pct	0	0	0	0	0	0
081216	13:31:56	1	1	4.0.7.0	12	8	6IAT_EU	ENAright6	200	200	0	0	0	0	36	1	334	0	1	Enanwal	50pct	50pct	0	0	0	0	0	0
081216	13:31:56	1	1	4.0.7.0	12	9	6IAT_EU	ENAright1	200	200	0	0	0	0	36	1	385	0	1	ENANWAL	50pct	50pct	0	0	0	0	0	0
081216	13:31:56	1	1	4.0.7.0	12	10	6IAT_EU	positive	200	200	0	0	0	0	36	1	425	0	5	Success	50pct	50pct	0	0	0	0	0	0
081216	13:31:56	1	1	4.0.7.0	12	11	6IAT_EU	UDIleft2	200	200	0	0	0	0	33	1	512	0	1	Udibnon	50pct	50pct	0	0	0	0	0	0
081216	13:31:56	1	1	4.0.7.0	12	12	6IAT_EU	positive	200	200	0	0	0	0	36	1	644	0	3	Glorious	50pct	50pct	0	0	0	0	0	0
081216	13:31:56	1	1	4.0.7.0	12	13	6IAT_EU	negative	200	200	0	0	0	0	36	0	346	0	4	Sadness	50pct	50pct	0	1	X	50pct	50pct	350
081216	13:31:56	1	1	4.0.7.0	12	14	6IAT_EU	positive	200	200	0	0	0	0	36	1	492	0	2	Beautiful	50pct	50pct	0	0	0	0	0	0
081216	13:31:56	1	1	4.0.7.0	12	15	6IAT_EU	UDIleft7	200	200	0	0	0	0	33	1	400	0	1	UDIBNON	50pct	50pct	0	0	0	0	0	0
081216	13:31:56	1	1	4.0.7.0	12	16	6IAT_EU	negative	200	200	0	0	0	0	33	1	464	0	1	Agony	50pct	50pct	0	0	0	0	0	0
081216	13:31:56	1	1	4.0.7.0	12	17	6IAT_EU	UDIleft1	200	200	0	0	0	0	33	1	446	0	1	UDIBNON	50pct	50pct	0	0	0	0	0	0
081216	13:31:56	1	1	4.0.7.0	12	18	6IAT_EU	negative	200	200	0	0	0	0	33	1	340	0	5	Unpleasant	50pct	50pct	0	0	0	0	0	0
081216	13:31:56	1	1	4.0.7.0	12	19	6IAT_EU	positive	200	200	0	0	0	0	36	1	431	0	4	Marvelous	50pct	50pct	0	0	0	0	0	0
081216	13:31:56	1	1	4.0.7.0	12	20	6IAT_EU	positive	200	200	0	0	0	0	36	1	422	0	1	Wonderful	50pct	50pct	0	0	0	0	0	0
081216	13:31:56	1	1	4.0.7.0	12	21	6IAT_EU	ENAright7	200	200	0	0	0	0	36	1	341	0	1	ENANWAL	50pct	50pct	0	0	0	0	0	0
081216	13:31:56	1	1	4.0.7.0	12	22	6IAT_EU	positive	200	200	0	0	0	0	36	1	455	0	3	Glorious	50pct	50pct	0	0	0	0	0	0
081216	13:31:56	1	1	4.0.7.0	12	23	6IAT_EU	negative	200	200	0	0	0	0	36	0	373	0	2	Evil	50pct	50pct	0	1	X	50pct	50pct	383
081216	13:31:56	1	1	4.0.7.0	12	24	6IAT_EU	UDIleft8	200	200	0	0	0	0	33	1	525	0	1	Udibnon	50pct	50pct	0	0	0	0	0	0
081216	13:31:56	1	1	4.0.7.0	12	25	6IAT_EU	UDIleft6	200	200	0	0	0	0	33	1	432	0	1	Udibnon	50pct	50pct	0	0	0	0	0	0
081216	13:31:56	1	1	4.0.7.0	12	26	6IAT_EU	negative	200	200	0	0	0	0	33	1	519	0	3	Failure	50pct	50pct	0	0	0	0	0	0
081216	13:31:56	1	1	4.0.7.0	12	27	6IAT_EU	ENAright8	200	200	0	0	0	0	33	0	506	0	1	Enanwal	50pct	50pct	0	1	X	50pct	50pct	517
081216	13:31:56	1	1	4.0.7.0	12	28	6IAT_EU	positive	200	200	0	0	0	0	36	1	669	0	1	Wonderful	50pct	50pct	0	0	0	0	0	0
081216	13:31:56	1	1	4.0.7.0	12	29	6IAT_EU	negative	200	200	0	0	0	0	33	1	634	0	2	Evil	50pct	50pct	0	0	0	0	0	0
081216	13:31:56	1	1	4.0.7.0	12	30	6IAT_EU	UDIleft3	200	200	0	0	0	0	33	1	560	0	1	UDIBNON	50pct	50pct	0	0	0	0	0	0
081216	13:31:56	1	1	4.0.7.0	12	31	6IAT_EU	ENAright4	200	200	0	0	0	0	36	1	442	0	1	Enanwal	50pct	50pct	0	0	0	0	0	0
081216	13:31:56	1	1	4.0.7.0	12	32	6IAT_EU	ENAright2	200	200	0	0	0	0	36	1	352	0	1	Enanwal	50pct	50pct	0	0	0	0	0	0
081216	13:31:56	1	1	4.0.7.0	12	33	6IAT_EU	negative	200	200	0	0	0	0	33	1	434	0	5	Unpleasant	50pct	50pct	0	0	0	0	0	0
081216	13:31:56	1	1	4.0.7.0	13	1	7IAT_EU	wait	0	0	0	0	0	0	0	0	3000	0	1		50pct	50pct	0	0	0	0	0	0
081216	13:31:56	1	1	4.0.7.0	13	2	7IAT_EU	UDIleft8	200	200	0	0	0	0	33	1	894	0	1	Udibnon	50pct	50pct	0	0	0	0	0	0
081216	13:31:56	1	1	4.0.7.0	13	3	7IAT_EU	ENAright5	200	200	0	0	0	0	36	1	482	0	1	ENANWAL	50pct	50pct	0	0	0	0	0	0
081216	13:31:56	1	1	4.0.7.0	13	4	7IAT_EU	ENAright3	200	200	0	0	0	0	36	1	391	0	1	ENANWAL	50pct	50pct	0	0	0	0	0	0
081216	13:31:56	1	1	4.0.7.0	13	5	7IAT_EU	UDIleft7	200	200	0	0	0	0	33	1	416	0	1	UDIBNON	50pct	50pct	0	0	0	0	0	0
081216	13:31:56	1	1	4.0.7.0	13	6	7IAT_EU	negative	200	200	0	0	0	0	33	1	1295	0	3	Failure	50pct	50pct	0	0	0	0	0	0
081216	13:31:56	1	1	4.0.7.0	13	7	7IAT_EU	negative	200	200	0	0	0	0	33	1	435	0	1	Agony	50pct	50pct	0	0	0	0	0	0
081216	13:31:56	1	1	4.0.7.0	13	8	7IAT_EU	UDIleft4	200	200	0	0	0	0	33	1	385	0	1	Udibnon	50pct	50pct	0	0	0	0	0	0
081216	13:31:56	1	1	4.0.7.0	13	9	7IAT_EU	negative	200	200	0	0	0	0	33	1	505	0	4	Sadness	50pct	50pct	0	0	0	0	0	0
081216	13:31:56	1	1	4.0.7.0	13	10	7IAT_EU	ENAright7	200	200	0	0	0	0	33	0	349	0	1	ENANWAL	50pct	50pct	0	1	X	50pct	50pct	350
081216	13:31:56	1	1	4.0.7.0	13	11	7IAT_EU	UDIleft3	200	200	0	0	0	0	36	0	518	0	1	UDIBNON	50pct	50pct	0	1	X	50pct	50pct	533
081216	13:31:56	1	1	4.0.7.0	13	12	7IAT_EU	positive	200	200	0	0	0	0	36	1	472	0	2	Beautiful	50pct	50pct	0	0	0	0	0	0
081216	13:31:56	1	1	4.0.7.0	13	13	7IAT_EU	negative	200	200	0	0	0	0	33	1	454	0	5	Unpleasant	50pct	50pct	0	0	0	0	0	0
081216	13:31:56	1	1	4.0.7.0	13	14	7IAT_EU	negative	200	200	0	0	0	0	33	1	475	0	4	Sadness	50pct	50pct	0	0	0	0	0	0
081216	13:31:56	1	1	4.0.7.0	13	15	7IAT_EU	positive	200	200	0	0	0	0	36	1	448	0	5	Success	50pct	50pct	0	0	0	0	0	0
081216	13:31:56	1	1	4.0.7.0	13	16	7IAT_EU	positive	200	200	0	0	0	0	36	1	527	0	4	Marvelous	50pct	50pct	0	0	0	0	0	0
081216	13:31:56	1	1	4.0.7.0	13	17	7IAT_EU	ENAright6	200	200	0	0	0	0	36	1	610	0	1	Enanwal	50pct	50pct	0	0	0	0	0	0
081216	13:31:56	1	1	4.0.7.0	13	18	7IAT_EU	UDIleft5	200	200	0	0	0	0	33	1	537	0	1	UDIBNON	50pct	50pct	0	0	0	0	0	0
081216	13:31:56	1	1	4.0.7.0	13	19	7IAT_EU	negative	200	200	0	0	0	0	36	0	547	0	2	Evil	50pct	50pct	0	1	X	50pct	50pct	550
081216	13:31:56	1	1	4.0.7.0	13	20	7IAT_EU	ENAright8	200	200	0	0	0	0	36	1	436	0	1	Enanwal	50pct	50pct	0	0	0	0	0	0
081216	13:31:56	1	1	4.0.7.0	13	21	7IAT_EU	ENAright4	200	200	0	0	0	0	36	1	451	0	1	Enanwal	50pct	50pct	0	0	0	0	0	0
081216	13:31:56	1	1	4.0.7.0	13	22	7IAT_EU	UDIleft6	200	200	0	0	0	0	33	1	480	0	1	Udibnon	50pct	50pct	0	0	0	0	0	0
081216	13:31:56	1	1	4.0.7.0	13	23	7IAT_EU	negative	200	200	0	0	0	0	33	1	461	0	1	Agony	50pct	50pct	0	0	0	0	0	0
081216	13:31:56	1	1	4.0.7.0	13	24	7IAT_EU	positive	200	200	0	0	0	0	33	0	371	0	5	Success	50pct	50pct	0	1	X	50pct	50pct	383
081216	13:31:56	1	1	4.0.7.0	13	25	7IAT_EU	UDIleft1	200	200	0	0	0	0	33	1	475	0	1	UDIBNON	50pct	50pct	0	0	0	0	0	0
081216	13:31:56	1	1	4.0.7.0	13	26	7IAT_EU	negative	200	200	0	0	0	0	33	1	608	0	3	Failure	50pct	50pct	0	0	0	0	0	0
081216	13:31:56	1	1	4.0.7.0	13	27	7IAT_EU	positive	200	200	0	0	0	0	33	0	424	0	2	Beautiful	50pct	50pct	0	1	X	50pct	50pct	433
081216	13:31:56	1	1	4.0.7.0	13	28	7IAT_EU	ENAright1	200	200	0	0	0	0	36	1	510	0	1	ENANWAL	50pct	50pct	0	0	0	0	0	0
081216	13:31:56	1	1	4.0.7.0	13	29	7IAT_EU	UDIleft2	200	200	0	0	0	0	33	1	482	0	1	Udibnon	50pct	50pct	0	0	0	0	0	0
081216	13:31:56	1	1	4.0.7.0	13	30	7IAT_EU	ENAright2	200	200	0	0	0	0	33	0	431	0	1	Enanwal	50pct	50pct	0	1	X	50pct	50pct	433
081216	13:31:56	1	1	4.0.7.0	13	31	7IAT_EU	positive	200	200	0	0	0	0	36	1	605	0	1	Wonderful	50pct	50pct	0	0	0	0	0	0
081216	13:31:56	1	1	4.0.7.0	13	32	7IAT_EU	positive	200	200	0	0	0	0	36	1	500	0	3	Glorious	50pct	50pct	0	0	0	0	0	0
081216	13:31:56	1	1	4.0.7.0	13	33	7IAT_EU	positive	200	200	0	0	0	0	36	1	504	0	4	Marvelous	50pct	50pct	0	0	0	0	0	0
081216	13:31:56	1	1	4.0.7.0	15	1	1IAT_BL	wait	0	0	0	0	0	0	0	0	3000	0	1		50pct	50pct	0	0	0	0	0	0
081216	13:31:56	1	1	4.0.7.0	15	2	1IAT_BL	BAYleft7	200	200	0	0	0	0	33	1	1774	0	1	BAYRAM	50pct	50pct	0	0	0	0	0	0
081216	13:31:56	1	1	4.0.7.0	15	3	1IAT_BL	LOKright8	200	200	0	0	0	0	33	0	438	0	1	Lokanta	50pct	50pct	0	1	X	50pct	50pct	450
081216	13:31:56	1	1	4.0.7.0	15	4	1IAT_BL	LOKright4	200	200	0	0	0	0	36	1	35	0	1	Lokanta	50pct	50pct	0	0	0	0	0	0
081216	13:31:56	1	1	4.0.7.0	15	5	1IAT_BL	LOKright3	200	200	0	0	0	0	36	1	74	0	1	LOKANTA	50pct	50pct	0	0	0	0	0	0
081216	13:31:56	1	1	4.0.7.0	15	6	1IAT_BL	LOKright5	200	200	0	0	0	0	36	1	16	0	1	LOKANTA	50pct	50pct	0	0	0	0	0	0
081216	13:31:56	1	1	4.0.7.0	15	7	1IAT_BL	LOKright6	200	200	0	0	0	0	36	1	7	0	1	Lokanta	50pct	50pct	0	0	0	0	0	0
081216	13:31:56	1	1	4.0.7.0	15	8	1IAT_BL	BAYleft6	200	200	0	0	0	0	33	1	15	0	1	Bayram	50pct	50pct	0	0	0	0	0	0
081216	13:31:56	1	1	4.0.7.0	15	9	1IAT_BL	LOKright2	200	200	0	0	0	0	33	0	119	0	1	Lokanta	50pct	50pct	0	1	X	50pct	50pct	133
081216	13:31:56	1	1	4.0.7.0	15	10	1IAT_BL	BAYleft2	200	200	0	0	0	0	36	0	58	0	1	Bayram	50pct	50pct	0	1	X	50pct	50pct	66
081216	13:31:56	1	1	4.0.7.0	15	11	1IAT_BL	BAYleft3	200	200	0	0	0	0	33	1	47	0	1	BAYRAM	50pct	50pct	0	0	0	0	0	0
081216	13:31:56	1	1	4.0.7.0	15	12	1IAT_BL	LOKright1	200	200	0	0	0	0	36	1	118	0	1	LOKANTA	50pct	50pct	0	0	0	0	0	0
081216	13:31:56	1	1	4.0.7.0	15	13	1IAT_BL	BAYleft1	200	200	0	0	0	0	33	1	57	0	1	BAYRAM	50pct	50pct	0	0	0	0	0	0
081216	13:31:56	1	1	4.0.7.0	15	14	1IAT_BL	LOKright7	200	200	0	0	0	0	36	1	87	0	1	LOKANTA	50pct	50pct	0	0	0	0	0	0
081216	13:31:56	1	1	4.0.7.0	15	15	1IAT_BL	BAYleft8	200	200	0	0	0	0	33	1	44	0	1	Bayram	50pct	50pct	0	0	0	0	0	0
081216	13:31:56	1	1	4.0.7.0	15	16	1IAT_BL	BAYleft4	200	200	0	0	0	0	36	0	75	0	1	Bayram	50pct	50pct	0	1	X	50pct	50pct	83
081216	13:31:56	1	1	4.0.7.0	15	17	1IAT_BL	BAYleft5	200	200	0	0	0	0	33	1	56	0	1	BAYRAM	50pct	50pct	0	0	0	0	0	0
081216	13:31:56	1	1	4.0.7.0	16	1	2IAT	wait	0	0	0	0	0	0	0	0	3000	0	1		50pct	50pct	0	0	0	0	0	0
081216	13:31:56	1	1	4.0.7.0	16	2	2IAT	negative	200	200	0	0	0	0	36	0	73	0	5	Unpleasant	50pct	50pct	0	1	X	50pct	50pct	83
081216	13:31:56	1	1	4.0.7.0	16	3	2IAT	positive	200	200	0	0	0	0	33	0	30	0	5	Success	50pct	50pct	0	1	X	50pct	50pct	33
081216	13:31:56	1	1	4.0.7.0	16	4	2IAT	positive	200	200	0	0	0	0	36	1	108	0	1	Wonderful	50pct	50pct	0	0	0	0	0	0
081216	13:31:56	1	1	4.0.7.0	16	5	2IAT	negative	200	200	0	0	0	0	33	1	616	0	1	Agony	50pct	50pct	0	0	0	0	0	0
081216	13:31:56	1	1	4.0.7.0	16	6	2IAT	positive	200	200	0	0	0	0	33	0	7	0	4	Marvelous	50pct	50pct	0	1	X	50pct	50pct	33
081216	13:31:56	1	1	4.0.7.0	16	7	2IAT	positive	200	200	0	0	0	0	33	0	39	0	3	Glorious	50pct	50pct	0	1	X	50pct	50pct	50
081216	13:31:56	1	1	4.0.7.0	16	8	2IAT	negative	200	200	0	0	0	0	33	1	261	0	4	Sadness	50pct	50pct	0	0	0	0	0	0
081216	13:31:56	1	1	4.0.7.0	16	9	2IAT	negative	200	200	0	0	0	0	36	0	123	0	2	Evil	50pct	50pct	0	1	X	50pct	50pct	133
081216	13:31:56	1	1	4.0.7.0	16	10	2IAT	positive	200	200	0	0	0	0	36	1	14	0	2	Beautiful	50pct	50pct	0	0	0	0	0	0
081216	13:31:56	1	1	4.0.7.0	16	11	2IAT	negative	200	200	0	0	0	0	33	1	22	0	3	Failure	50pct	50pct	0	0	0	0	0	0
081216	13:31:56	1	1	4.0.7.0	16	12	2IAT	negative	200	200	0	0	0	0	33	1	93	0	4	Sadness	50pct	50pct	0	0	0	0	0	0
081216	13:31:56	1	1	4.0.7.0	16	13	2IAT	positive	200	200	0	0	0	0	33	0	114	0	2	Beautiful	50pct	50pct	0	1	X	50pct	50pct	116
081216	13:31:56	1	1	4.0.7.0	16	14	2IAT	positive	200	200	0	0	0	0	33	0	781	0	3	Glorious	50pct	50pct	0	1	X	50pct	50pct	784
081216	13:31:56	1	1	4.0.7.0	16	15	2IAT	negative	200	200	0	0	0	0	33	1	252	0	3	Failure	50pct	50pct	0	0	0	0	0	0
081216	13:31:56	1	1	4.0.7.0	16	16	2IAT	positive	200	200	0	0	0	0	33	0	10	0	5	Success	50pct	50pct	0	1	X	50pct	50pct	33
081216	13:31:56	1	1	4.0.7.0	16	17	2IAT	negative	200	200	0	0	0	0	33	1	138	0	5	Unpleasant	50pct	50pct	0	0	0	0	0	0
081216	13:31:56	1	1	4.0.7.0	17	1	3IAT_BL	wait	0	0	0	0	0	0	0	0	3000	0	1		50pct	50pct	0	0	0	0	0	0
081216	13:31:56	1	1	4.0.7.0	17	2	3IAT_BL	positive	200	200	0	0	0	0	36	1	288	0	1	Wonderful	50pct	50pct	0	0	0	0	0	0
081216	13:31:56	1	1	4.0.7.0	17	3	3IAT_BL	BAYleft7	200	200	0	0	0	0	36	0	28	0	1	BAYRAM	50pct	50pct	0	1	X	50pct	50pct	33
081216	13:31:56	1	1	4.0.7.0	17	4	3IAT_BL	positive	200	200	0	0	0	0	33	0	75	0	4	Marvelous	50pct	50pct	0	1	X	50pct	50pct	83
081216	13:31:56	1	1	4.0.7.0	17	5	3IAT_BL	LOKright3	200	200	0	0	0	0	33	0	112	0	1	LOKANTA	50pct	50pct	0	1	X	50pct	50pct	116
081216	13:31:56	1	1	4.0.7.0	17	6	3IAT_BL	negative	200	200	0	0	0	0	33	1	171	0	1	Agony	50pct	50pct	0	0	0	0	0	0
081216	13:31:56	1	1	4.0.7.0	17	7	3IAT_BL	BAYleft3	200	200	0	0	0	0	33	1	101	0	1	BAYRAM	50pct	50pct	0	0	0	0	0	0
081216	13:31:56	1	1	4.0.7.0	17	8	3IAT_BL	positive	200	200	0	0	0	0	33	0	129	0	1	Wonderful	50pct	50pct	0	1	X	50pct	50pct	133
081216	13:31:56	1	1	4.0.7.0	17	9	3IAT_BL	negative	200	200	0	0	0	0	33	1	116	0	2	Evil	50pct	50pct	0	0	0	0	0	0
081216	13:31:56	1	1	4.0.7.0	17	10	3IAT_BL	negative	200	200	0	0	0	0	33	1	207	0	3	Failure	50pct	50pct	0	0	0	0	0	0
081216	13:31:56	1	1	4.0.7.0	17	11	3IAT_BL	BAYleft8	200	200	0	0	0	0	33	1	239	0	1	Bayram	50pct	50pct	0	0	0	0	0	0
081216	13:31:56	1	1	4.0.7.0	17	12	3IAT_BL	positive	200	200	0	0	0	0	36	1	150	0	2	Beautiful	50pct	50pct	0	0	0	0	0	0
081216	13:31:56	1	1	4.0.7.0	17	13	3IAT_BL	negative	200	200	0	0	0	0	36	0	152	0	4	Sadness	50pct	50pct	0	1	X	50pct	50pct	166
081216	13:31:56	1	1	4.0.7.0	17	14	3IAT_BL	positive	200	200	0	0	0	0	36	1	105	0	3	Glorious	50pct	50pct	0	0	0	0	0	0
081216	13:31:56	1	1	4.0.7.0	17	15	3IAT_BL	LOKright4	200	200	0	0	0	0	36	1	141	0	1	Lokanta	50pct	50pct	0	0	0	0	0	0
081216	13:31:56	1	1	4.0.7.0	17	16	3IAT_BL	negative	200	200	0	0	0	0	36	0	32	0	1	Agony	50pct	50pct	0	1	X	50pct	50pct	33
081216	13:31:56	1	1	4.0.7.0	17	17	3IAT_BL	LOKright2	200	200	0	0	0	0	36	1	158	0	1	Lokanta	50pct	50pct	0	0	0	0	0	0
081216	13:31:56	1	1	4.0.7.0	17	18	3IAT_BL	BAYleft1	200	200	0	0	0	0	33	1	200	0	1	BAYRAM	50pct	50pct	0	0	0	0	0	0
081216	13:31:56	1	1	4.0.7.0	17	19	3IAT_BL	BAYleft5	200	200	0	0	0	0	36	0	0	0	1	BAYRAM	50pct	50pct	0	1	X	50pct	50pct	33
081216	13:31:56	1	1	4.0.7.0	17	20	3IAT_BL	positive	200	200	0	0	0	0	33	0	32	0	4	Marvelous	50pct	50pct	0	1	X	50pct	50pct	33
081216	13:31:56	1	1	4.0.7.0	17	21	3IAT_BL	positive	200	200	0	0	0	0	33	0	86	0	5	Success	50pct	50pct	0	1	X	50pct	50pct	100
081216	13:31:56	1	1	4.0.7.0	17	22	3IAT_BL	LOKright8	200	200	0	0	0	0	33	0	106	0	1	Lokanta	50pct	50pct	0	1	X	50pct	50pct	116
081216	13:31:56	1	1	4.0.7.0	17	23	3IAT_BL	negative	200	200	0	0	0	0	33	1	45	0	5	Unpleasant	50pct	50pct	0	0	0	0	0	0
081216	13:31:56	1	1	4.0.7.0	17	24	3IAT_BL	LOKright6	200	200	0	0	0	0	33	0	116	0	1	Lokanta	50pct	50pct	0	1	X	50pct	50pct	133
081216	13:31:56	1	1	4.0.7.0	17	25	3IAT_BL	BAYleft4	200	200	0	0	0	0	33	1	87	0	1	Bayram	50pct	50pct	0	0	0	0	0	0
081216	13:31:56	1	1	4.0.7.0	17	26	3IAT_BL	BAYleft6	200	200	0	0	0	0	33	1	60	0	1	Bayram	50pct	50pct	0	0	0	0	0	0
081216	13:31:56	1	1	4.0.7.0	17	27	3IAT_BL	LOKright5	200	200	0	0	0	0	33	0	106	0	1	LOKANTA	50pct	50pct	0	1	X	50pct	50pct	116
081216	13:31:56	1	1	4.0.7.0	17	28	3IAT_BL	negative	200	200	0	0	0	0	33	1	45	0	2	Evil	50pct	50pct	0	0	0	0	0	0
081216	13:31:56	1	1	4.0.7.0	17	29	3IAT_BL	BAYleft2	200	200	0	0	0	0	36	0	28	0	1	Bayram	50pct	50pct	0	1	X	50pct	50pct	33
081216	13:31:56	1	1	4.0.7.0	17	30	3IAT_BL	positive	200	200	0	0	0	0	33	0	3	0	1	Wonderful	50pct	50pct	0	1	X	50pct	50pct	33
081216	13:31:56	1	1	4.0.7.0	17	31	3IAT_BL	negative	200	200	0	0	0	0	33	1	66	0	3	Failure	50pct	50pct	0	0	0	0	0	0
081216	13:31:56	1	1	4.0.7.0	17	32	3IAT_BL	LOKright1	200	200	0	0	0	0	33	0	128	0	1	LOKANTA	50pct	50pct	0	1	X	50pct	50pct	133
081216	13:31:56	1	1	4.0.7.0	17	33	3IAT_BL	LOKright7	200	200	0	0	0	0	33	0	83	0	1	LOKANTA	50pct	50pct	0	1	X	50pct	50pct	100
081216	13:31:56	1	1	4.0.7.0	18	1	4IAT_BL	wait	0	0	0	0	0	0	0	0	3000	0	1		50pct	50pct	0	0	0	0	0	0
081216	13:31:56	1	1	4.0.7.0	18	2	4IAT_BL	positive	200	200	0	0	0	0	33	0	85	0	5	Success	50pct	50pct	0	1	X	50pct	50pct	100
081216	13:31:56	1	1	4.0.7.0	18	3	4IAT_BL	BAYleft4	200	200	0	0	0	0	33	1	113	0	1	Bayram	50pct	50pct	0	0	0	0	0	0
081216	13:31:56	1	1	4.0.7.0	18	4	4IAT_BL	negative	200	200	0	0	0	0	33	1	149	0	2	Evil	50pct	50pct	0	0	0	0	0	0
081216	13:31:56	1	1	4.0.7.0	18	5	4IAT_BL	LOKright8	200	200	0	0	0	0	33	0	87	0	1	Lokanta	50pct	50pct	0	1	X	50pct	50pct	100
081216	13:31:56	1	1	4.0.7.0	18	6	4IAT_BL	BAYleft3	200	200	0	0	0	0	33	1	91	0	1	BAYRAM	50pct	50pct	0	0	0	0	0	0
081216	13:31:56	1	1	4.0.7.0	18	7	4IAT_BL	LOKright3	200	200	0	0	0	0	33	0	112	0	1	LOKANTA	50pct	50pct	0	1	X	50pct	50pct	116
081216	13:31:56	1	1	4.0.7.0	18	8	4IAT_BL	negative	200	200	0	0	0	0	33	1	155	0	1	Agony	50pct	50pct	0	0	0	0	0	0
081216	13:31:56	1	1	4.0.7.0	18	9	4IAT_BL	BAYleft6	200	200	0	0	0	0	36	0	29	0	1	Bayram	50pct	50pct	0	1	X	50pct	50pct	33
081216	13:31:56	1	1	4.0.7.0	18	10	4IAT_BL	positive	200	200	0	0	0	0	33	0	44	0	2	Beautiful	50pct	50pct	0	1	X	50pct	50pct	50
081216	13:31:56	1	1	4.0.7.0	18	11	4IAT_BL	BAYleft8	200	200	0	0	0	0	33	1	98	0	1	Bayram	50pct	50pct	0	0	0	0	0	0
081216	13:31:56	1	1	4.0.7.0	18	12	4IAT_BL	positive	200	200	0	0	0	0	33	0	135	0	3	Glorious	50pct	50pct	0	1	X	50pct	50pct	150
081216	13:31:56	1	1	4.0.7.0	18	13	4IAT_BL	LOKright6	200	200	0	0	0	0	33	0	105	0	1	Lokanta	50pct	50pct	0	1	X	50pct	50pct	116
081216	13:31:56	1	1	4.0.7.0	18	14	4IAT_BL	negative	200	200	0	0	0	0	33	1	108	0	4	Sadness	50pct	50pct	0	0	0	0	0	0
081216	13:31:56	1	1	4.0.7.0	18	15	4IAT_BL	LOKright7	200	200	0	0	0	0	36	1	9	0	1	LOKANTA	50pct	50pct	0	0	0	0	0	0
081216	13:31:56	1	1	4.0.7.0	18	16	4IAT_BL	negative	200	200	0	0	0	0	33	1	57	0	5	Unpleasant	50pct	50pct	0	0	0	0	0	0
081216	13:31:56	1	1	4.0.7.0	18	17	4IAT_BL	LOKright1	200	200	0	0	0	0	33	0	111	0	1	LOKANTA	50pct	50pct	0	1	X	50pct	50pct	116
081216	13:31:56	1	1	4.0.7.0	18	18	4IAT_BL	positive	200	200	0	0	0	0	33	0	154	0	4	Marvelous	50pct	50pct	0	1	X	50pct	50pct	166
081216	13:31:56	1	1	4.0.7.0	18	19	4IAT_BL	negative	200	200	0	0	0	0	33	1	100	0	3	Failure	50pct	50pct	0	0	0	0	0	0
081216	13:31:56	1	1	4.0.7.0	18	20	4IAT_BL	negative	200	200	0	0	0	0	33	1	72	0	1	Agony	50pct	50pct	0	0	0	0	0	0
081216	13:31:56	1	1	4.0.7.0	18	21	4IAT_BL	BAYleft1	200	200	0	0	0	0	33	1	101	0	1	BAYRAM	50pct	50pct	0	0	0	0	0	0
081216	13:31:56	1	1	4.0.7.0	18	22	4IAT_BL	negative	200	200	0	0	0	0	33	1	121	0	5	Unpleasant	50pct	50pct	0	0	0	0	0	0
081216	13:31:56	1	1	4.0.7.0	18	23	4IAT_BL	positive	200	200	0	0	0	0	33	0	117	0	4	Marvelous	50pct	50pct	0	1	X	50pct	50pct	133
081216	13:31:56	1	1	4.0.7.0	18	24	4IAT_BL	positive	200	200	0	0	0	0	33	0	120	0	1	Wonderful	50pct	50pct	0	1	X	50pct	50pct	133
081216	13:31:56	1	1	4.0.7.0	18	25	4IAT_BL	negative	200	200	0	0	0	0	33	1	106	0	4	Sadness	50pct	50pct	0	0	0	0	0	0
081216	13:31:56	1	1	4.0.7.0	18	26	4IAT_BL	LOKright5	200	200	0	0	0	0	33	0	150	0	1	LOKANTA	50pct	50pct	0	1	X	50pct	50pct	166
081216	13:31:56	1	1	4.0.7.0	18	27	4IAT_BL	BAYleft5	200	200	0	0	0	0	33	1	80	0	1	BAYRAM	50pct	50pct	0	0	0	0	0	0
081216	13:31:56	1	1	4.0.7.0	18	28	4IAT_BL	BAYleft7	200	200	0	0	0	0	36	0	5	0	1	BAYRAM	50pct	50pct	0	1	X	50pct	50pct	33
081216	13:31:56	1	1	4.0.7.0	18	29	4IAT_BL	positive	200	200	0	0	0	0	36	1	53	0	3	Glorious	50pct	50pct	0	0	0	0	0	0
081216	13:31:56	1	1	4.0.7.0	18	30	4IAT_BL	positive	200	200	0	0	0	0	33	0	59	0	2	Beautiful	50pct	50pct	0	1	X	50pct	50pct	66
081216	13:31:56	1	1	4.0.7.0	18	31	4IAT_BL	LOKright4	200	200	0	0	0	0	33	0	80	0	1	Lokanta	50pct	50pct	0	1	X	50pct	50pct	83
081216	13:31:56	1	1	4.0.7.0	18	32	4IAT_BL	BAYleft2	200	200	0	0	0	0	33	1	92	0	1	Bayram	50pct	50pct	0	0	0	0	0	0
081216	13:31:56	1	1	4.0.7.0	18	33	4IAT_BL	LOKright2	200	200	0	0	0	0	33	0	89	0	1	Lokanta	50pct	50pct	0	1	X	50pct	50pct	100
081216	13:31:56	1	1	4.0.7.0	19	1	5IAT_BL	wait	0	0	0	0	0	0	0	0	3000	0	1		50pct	50pct	0	0	0	0	0	0
081216	13:31:56	1	1	4.0.7.0	19	2	5IAT_BL	BAYright7	200	200	0	0	0	0	33	0	385	0	1	BAYRAM	50pct	50pct	0	1	X	50pct	50pct	400
081216	13:31:56	1	1	4.0.7.0	19	3	5IAT_BL	LOKleft5	200	200	0	0	0	0	33	1	177	0	1	LOKANTA	50pct	50pct	0	0	0	0	0	0
081216	13:31:56	1	1	4.0.7.0	19	4	5IAT_BL	BAYright5	200	200	0	0	0	0	33	0	98	0	1	BAYRAM	50pct	50pct	0	1	X	50pct	50pct	100
081216	13:31:56	1	1	4.0.7.0	19	5	5IAT_BL	BAYright6	200	200	0	0	0	0	33	0	78	0	1	Bayram	50pct	50pct	0	1	X	50pct	50pct	83
081216	13:31:56	1	1	4.0.7.0	19	6	5IAT_BL	BAYright3	200	200	0	0	0	0	33	0	90	0	1	BAYRAM	50pct	50pct	0	1	X	50pct	50pct	100
081216	13:31:56	1	1	4.0.7.0	19	7	5IAT_BL	LOKleft1	200	200	0	0	0	0	33	1	78	0	1	LOKANTA	50pct	50pct	0	0	0	0	0	0
081216	13:31:56	1	1	4.0.7.0	19	8	5IAT_BL	LOKleft7	200	200	0	0	0	0	33	1	92	0	1	LOKANTA	50pct	50pct	0	0	0	0	0	0
081216	13:31:56	1	1	4.0.7.0	19	9	5IAT_BL	BAYright4	200	200	0	0	0	0	33	0	105	0	1	Bayram	50pct	50pct	0	1	X	50pct	50pct	116
081216	13:31:56	1	1	4.0.7.0	19	10	5IAT_BL	LOKleft3	200	200	0	0	0	0	33	1	100	0	1	LOKANTA	50pct	50pct	0	0	0	0	0	0
081216	13:31:56	1	1	4.0.7.0	19	11	5IAT_BL	LOKleft2	200	200	0	0	0	0	33	1	144	0	1	Lokanta	50pct	50pct	0	0	0	0	0	0
081216	13:31:56	1	1	4.0.7.0	19	12	5IAT_BL	BAYright1	200	200	0	0	0	0	33	0	107	0	1	BAYRAM	50pct	50pct	0	1	X	50pct	50pct	116
081216	13:31:56	1	1	4.0.7.0	19	13	5IAT_BL	BAYright2	200	200	0	0	0	0	33	0	134	0	1	Bayram	50pct	50pct	0	1	X	50pct	50pct	150
081216	13:31:56	1	1	4.0.7.0	19	14	5IAT_BL	LOKleft8	200	200	0	0	0	0	33	1	56	0	1	Lokanta	50pct	50pct	0	0	0	0	0	0
081216	13:31:56	1	1	4.0.7.0	19	15	5IAT_BL	LOKleft6	200	200	0	0	0	0	33	1	135	0	1	Lokanta	50pct	50pct	0	0	0	0	0	0
081216	13:31:56	1	1	4.0.7.0	19	16	5IAT_BL	LOKleft4	200	200	0	0	0	0	33	1	81	0	1	Lokanta	50pct	50pct	0	0	0	0	0	0
081216	13:31:56	1	1	4.0.7.0	19	17	5IAT_BL	BAYright8	200	200	0	0	0	0	33	0	103	0	1	Bayram	50pct	50pct	0	1	X	50pct	50pct	116
081216	13:31:56	1	1	4.0.7.0	20	1	6IAT_BL	wait	0	0	0	0	0	0	0	0	3000	0	1		50pct	50pct	0	0	0	0	0	0
081216	13:31:56	1	1	4.0.7.0	20	2	6IAT_BL	positive	200	200	0	0	0	0	33	0	118	0	5	Success	50pct	50pct	0	1	X	50pct	50pct	133
081216	13:31:56	1	1	4.0.7.0	20	3	6IAT_BL	BAYright5	200	200	0	0	0	0	33	0	128	0	1	BAYRAM	50pct	50pct	0	1	X	50pct	50pct	133
081216	13:31:56	1	1	4.0.7.0	20	4	6IAT_BL	positive	200	200	0	0	0	0	33	0	91	0	5	Success	50pct	50pct	0	1	X	50pct	50pct	100
081216	13:31:56	1	1	4.0.7.0	20	5	6IAT_BL	negative	200	200	0	0	0	0	33	1	127	0	2	Evil	50pct	50pct	0	0	0	0	0	0
081216	13:31:56	1	1	4.0.7.0	20	6	6IAT_BL	negative	200	200	0	0	0	0	33	1	147	0	3	Failure	50pct	50pct	0	0	0	0	0	0
081216	13:31:56	1	1	4.0.7.0	20	7	6IAT_BL	negative	200	200	0	0	0	0	33	1	101	0	5	Unpleasant	50pct	50pct	0	0	0	0	0	0
081216	13:31:56	1	1	4.0.7.0	20	8	6IAT_BL	BAYright4	200	200	0	0	0	0	33	0	89	0	1	Bayram	50pct	50pct	0	1	X	50pct	50pct	100
081216	13:31:56	1	1	4.0.7.0	20	9	6IAT_BL	negative	200	200	0	0	0	0	33	1	102	0	1	Agony	50pct	50pct	0	0	0	0	0	0
081216	13:31:56	1	1	4.0.7.0	20	10	6IAT_BL	LOKleft5	200	200	0	0	0	0	33	1	162	0	1	LOKANTA	50pct	50pct	0	0	0	0	0	0
081216	13:31:56	1	1	4.0.7.0	20	11	6IAT_BL	BAYright8	200	200	0	0	0	0	33	0	124	0	1	Bayram	50pct	50pct	0	1	X	50pct	50pct	133
081216	13:31:56	1	1	4.0.7.0	20	12	6IAT_BL	positive	200	200	0	0	0	0	33	0	102	0	2	Beautiful	50pct	50pct	0	1	X	50pct	50pct	116
081216	13:31:56	1	1	4.0.7.0	20	13	6IAT_BL	negative	200	200	0	0	0	0	33	1	130	0	2	Evil	50pct	50pct	0	0	0	0	0	0
081216	13:31:56	1	1	4.0.7.0	20	14	6IAT_BL	LOKleft4	200	200	0	0	0	0	33	1	141	0	1	Lokanta	50pct	50pct	0	0	0	0	0	0
081216	13:31:56	1	1	4.0.7.0	20	15	6IAT_BL	BAYright1	200	200	0	0	0	0	33	0	152	0	1	BAYRAM	50pct	50pct	0	1	X	50pct	50pct	166
081216	13:31:56	1	1	4.0.7.0	20	16	6IAT_BL	positive	200	200	0	0	0	0	33	0	105	0	3	Glorious	50pct	50pct	0	1	X	50pct	50pct	116
081216	13:31:56	1	1	4.0.7.0	20	17	6IAT_BL	LOKleft3	200	200	0	0	0	0	33	1	205	0	1	LOKANTA	50pct	50pct	0	0	0	0	0	0
081216	13:31:56	1	1	4.0.7.0	20	18	6IAT_BL	negative	200	200	0	0	0	0	33	1	197	0	4	Sadness	50pct	50pct	0	0	0	0	0	0
081216	13:31:56	1	1	4.0.7.0	20	19	6IAT_BL	BAYright7	200	200	0	0	0	0	33	0	197	0	1	BAYRAM	50pct	50pct	0	1	X	50pct	50pct	200
081216	13:31:56	1	1	4.0.7.0	20	20	6IAT_BL	positive	200	200	0	0	0	0	33	0	197	0	1	Wonderful	50pct	50pct	0	1	X	50pct	50pct	200
081216	13:31:56	1	1	4.0.7.0	20	21	6IAT_BL	LOKleft2	200	200	0	0	0	0	33	1	156	0	1	Lokanta	50pct	50pct	0	0	0	0	0	0
081216	13:31:56	1	1	4.0.7.0	20	22	6IAT_BL	negative	200	200	0	0	0	0	33	1	206	0	5	Unpleasant	50pct	50pct	0	0	0	0	0	0
081216	13:31:56	1	1	4.0.7.0	20	23	6IAT_BL	BAYright3	200	200	0	0	0	0	33	0	182	0	1	BAYRAM	50pct	50pct	0	1	X	50pct	50pct	183
081216	13:31:56	1	1	4.0.7.0	20	24	6IAT_BL	positive	200	200	0	0	0	0	33	0	158	0	4	Marvelous	50pct	50pct	0	1	X	50pct	50pct	166
081216	13:31:56	1	1	4.0.7.0	20	25	6IAT_BL	LOKleft7	200	200	0	0	0	0	33	1	159	0	1	LOKANTA	50pct	50pct	0	0	0	0	0	0
081216	13:31:56	1	1	4.0.7.0	20	26	6IAT_BL	LOKleft8	200	200	0	0	0	0	33	1	177	0	1	Lokanta	50pct	50pct	0	0	0	0	0	0
081216	13:31:56	1	1	4.0.7.0	20	27	6IAT_BL	LOKleft1	200	200	0	0	0	0	33	1	187	0	1	LOKANTA	50pct	50pct	0	0	0	0	0	0
081216	13:31:56	1	1	4.0.7.0	20	28	6IAT_BL	BAYright2	200	200	0	0	0	0	33	0	187	0	1	Bayram	50pct	50pct	0	1	X	50pct	50pct	200
081216	13:31:56	1	1	4.0.7.0	20	29	6IAT_BL	BAYright6	200	200	0	0	0	0	33	0	219	0	1	Bayram	50pct	50pct	0	1	X	50pct	50pct	233
081216	13:31:56	1	1	4.0.7.0	20	30	6IAT_BL	positive	200	200	0	0	0	0	36	1	114	0	5	Success	50pct	50pct	0	0	0	0	0	0
081216	13:31:56	1	1	4.0.7.0	20	31	6IAT_BL	negative	200	200	0	0	0	0	36	0	62	0	4	Sadness	50pct	50pct	0	1	X	50pct	50pct	66
081216	13:31:56	1	1	4.0.7.0	20	32	6IAT_BL	LOKleft6	200	200	0	0	0	0	36	0	20	0	1	Lokanta	50pct	50pct	0	1	X	50pct	50pct	33
081216	13:31:56	1	1	4.0.7.0	20	33	6IAT_BL	positive	200	200	0	0	0	0	33	0	35	0	1	Wonderful	50pct	50pct	0	1	X	50pct	50pct	50
081216	13:31:56	1	1	4.0.7.0	21	1	7IAT_BL	wait	0	0	0	0	0	0	0	0	3000	0	1		50pct	50pct	0	0	0	0	0	0
081216	13:31:56	1	1	4.0.7.0	21	2	7IAT_BL	BAYright8	200	200	0	0	0	0	36	1	13	0	1	Bayram	50pct	50pct	0	0	0	0	0	0
081216	13:31:56	1	1	4.0.7.0	21	3	7IAT_BL	negative	200	200	0	0	0	0	33	1	173	0	1	Agony	50pct	50pct	0	0	0	0	0	0
081216	13:31:56	1	1	4.0.7.0	21	4	7IAT_BL	LOKleft3	200	200	0	0	0	0	33	1	150	0	1	LOKANTA	50pct	50pct	0	0	0	0	0	0
081216	13:31:56	1	1	4.0.7.0	21	5	7IAT_BL	negative	200	200	0	0	0	0	33	1	88	0	3	Failure	50pct	50pct	0	0	0	0	0	0
081216	13:31:56	1	1	4.0.7.0	21	6	7IAT_BL	LOKleft7	200	200	0	0	0	0	33	1	133	0	1	LOKANTA	50pct	50pct	0	0	0	0	0	0
081216	13:31:56	1	1	4.0.7.0	21	7	7IAT_BL	negative	200	200	0	0	0	0	33	1	128	0	2	Evil	50pct	50pct	0	0	0	0	0	0
081216	13:31:56	1	1	4.0.7.0	21	8	7IAT_BL	LOKleft5	200	200	0	0	0	0	33	1	123	0	1	LOKANTA	50pct	50pct	0	0	0	0	0	0
081216	13:31:56	1	1	4.0.7.0	21	9	7IAT_BL	positive	200	200	0	0	0	0	33	0	135	0	3	Glorious	50pct	50pct	0	1	X	50pct	50pct	150
081216	13:31:56	1	1	4.0.7.0	21	10	7IAT_BL	BAYright1	200	200	0	0	0	0	33	0	81	0	1	BAYRAM	50pct	50pct	0	1	X	50pct	50pct	83
081216	13:31:56	1	1	4.0.7.0	21	11	7IAT_BL	LOKleft6	200	200	0	0	0	0	33	1	45	0	1	Lokanta	50pct	50pct	0	0	0	0	0	0
081216	13:31:56	1	1	4.0.7.0	21	12	7IAT_BL	positive	200	200	0	0	0	0	33	0	116	0	4	Marvelous	50pct	50pct	0	1	X	50pct	50pct	133
081216	13:31:56	1	1	4.0.7.0	21	13	7IAT_BL	positive	200	200	0	0	0	0	33	0	119	0	2	Beautiful	50pct	50pct	0	1	X	50pct	50pct	133
081216	13:31:56	1	1	4.0.7.0	21	14	7IAT_BL	LOKleft1	200	200	0	0	0	0	33	1	89	0	1	LOKANTA	50pct	50pct	0	0	0	0	0	0
081216	13:31:56	1	1	4.0.7.0	21	15	7IAT_BL	negative	200	200	0	0	0	0	33	1	126	0	4	Sadness	50pct	50pct	0	0	0	0	0	0
081216	13:31:56	1	1	4.0.7.0	21	16	7IAT_BL	BAYright7	200	200	0	0	0	0	33	0	89	0	1	BAYRAM	50pct	50pct	0	1	X	50pct	50pct	100
081216	13:31:56	1	1	4.0.7.0	21	17	7IAT_BL	BAYright4	200	200	0	0	0	0	33	0	78	0	1	Bayram	50pct	50pct	0	1	X	50pct	50pct	83
081216	13:31:56	1	1	4.0.7.0	21	18	7IAT_BL	negative	200	200	0	0	0	0	33	1	130	0	2	Evil	50pct	50pct	0	0	0	0	0	0
081216	13:31:56	1	1	4.0.7.0	21	19	7IAT_BL	LOKleft2	200	200	0	0	0	0	33	1	102	0	1	Lokanta	50pct	50pct	0	0	0	0	0	0
081216	13:31:56	1	1	4.0.7.0	21	20	7IAT_BL	BAYright3	200	200	0	0	0	0	33	0	98	0	1	BAYRAM	50pct	50pct	0	1	X	50pct	50pct	100
081216	13:31:56	1	1	4.0.7.0	21	21	7IAT_BL	negative	200	200	0	0	0	0	33	1	45	0	1	Agony	50pct	50pct	0	0	0	0	0	0
081216	13:31:56	1	1	4.0.7.0	21	22	7IAT_BL	negative	200	200	0	0	0	0	33	1	108	0	5	Unpleasant	50pct	50pct	0	0	0	0	0	0
081216	13:31:56	1	1	4.0.7.0	21	23	7IAT_BL	LOKleft4	200	200	0	0	0	0	33	1	152	0	1	Lokanta	50pct	50pct	0	0	0	0	0	0
081216	13:31:56	1	1	4.0.7.0	21	24	7IAT_BL	BAYright6	200	200	0	0	0	0	33	0	122	0	1	Bayram	50pct	50pct	0	1	X	50pct	50pct	133
081216	13:31:56	1	1	4.0.7.0	21	25	7IAT_BL	positive	200	200	0	0	0	0	33	0	133	0	3	Glorious	50pct	50pct	0	1	X	50pct	50pct	150
081216	13:31:56	1	1	4.0.7.0	21	26	7IAT_BL	LOKleft8	200	200	0	0	0	0	33	1	87	0	1	Lokanta	50pct	50pct	0	0	0	0	0	0
081216	13:31:56	1	1	4.0.7.0	21	27	7IAT_BL	BAYright2	200	200	0	0	0	0	33	0	164	0	1	Bayram	50pct	50pct	0	1	X	50pct	50pct	166
081216	13:31:56	1	1	4.0.7.0	21	28	7IAT_BL	negative	200	200	0	0	0	0	33	1	164	0	3	Failure	50pct	50pct	0	0	0	0	0	0
081216	13:31:56	1	1	4.0.7.0	21	29	7IAT_BL	BAYright5	200	200	0	0	0	0	33	0	151	0	1	BAYRAM	50pct	50pct	0	1	X	50pct	50pct	166
081216	13:31:56	1	1	4.0.7.0	21	30	7IAT_BL	positive	200	200	0	0	0	0	33	0	104	0	1	Wonderful	50pct	50pct	0	1	X	50pct	50pct	116
081216	13:31:56	1	1	4.0.7.0	21	31	7IAT_BL	positive	200	200	0	0	0	0	33	0	171	0	4	Marvelous	50pct	50pct	0	1	X	50pct	50pct	183
081216	13:31:56	1	1	4.0.7.0	21	32	7IAT_BL	positive	200	200	0	0	0	0	33	0	164	0	2	Beautiful	50pct	50pct	0	1	X	50pct	50pct	166
081216	13:31:56	1	1	4.0.7.0	21	33	7IAT_BL	positive	200	200	0	0	0	0	33	0	173	0	5	Success	50pct	50pct	0	1	X	50pct	50pct	183
